time_ms,acc_x,acc_y,acc_z,gyro_x,gyro_y,gyro_z,label
48,0.5549111797988414,-0.09646393971592188,-0.4213566958338022,-39.76523157422,-61.767982475931575,13.38155891904818,
164,0.06970087434425949,1.1446969813629984,0.3385778748601675,-35.447056207343714,-44.191354665833764,-2.476240473915106,
280,0.06895370923876762,-0.20686375806480645,-0.7138707386553287,14.68308134747173,-87.94595288519106,1.6412615872686833,
380,0.5576982532341033,-0.6818342629253864,0.08849719862043857,3.3865749166835757,-60.63926639483029,-17.864477594931532,
497,-0.2201146866409108,-0.5370125350147485,-0.095885555306077,8.601260636891642,-49.51665167111219,-2.4276436779704653,
600,0.059366856128163635,0.08071867357343435,-0.11563654995858669,-24.02621834898994,-13.187990504196373,1.464096512038896,
719,-1.0125968609247356,0.9790306183442473,0.9363257413446903,-26.658921594760525,21.400384565977095,-13.2266024173481,
831,-0.8556607707198709,0.588538870242983,0.4999684602558613,-9.452810202794751,44.390946453759874,-16.54649355683461,
947,-1.146860881398618,0.06932765711769462,-0.19721827010214327,-3.755656781646497,13.419446832147887,-34.537787274085765,
1047,-1.2971145712301135,0.4327056267134845,0.06370353362560272,11.40710234793288,8.894905837236124,-62.974535392814325,
1163,-0.5921714545916765,0.23494477416723966,0.6628624359518289,18.554492333190193,26.57772259836012,-71.88397074996236,
1264,-0.20987324207909405,0.04137392065674066,-0.09158990393877028,-0.47513794746541155,22.162237526378657,-63.61285072169787,
1364,-0.10657061544954777,-0.10552432126700878,0.10819266369342803,9.384229980885944,53.13590402550483,-48.375842740085396,
1480,0.4657905885830521,-0.18173881528899072,-0.17149053912758827,17.4638613869009,15.931972899472097,-26.021166341388923,forward
1581,0.6885210472129285,-0.1864344257593155,0.24859306803047657,7.351238688583636,-15.945834768392638,-7.501589081462188,forward
1696,0.4538083282358944,-0.9811343126252293,0.5006120188564062,8.95363692636177,-11.667604055329875,-19.55365338611468,forward
1797,0.7388080499045551,-0.44860476824343204,0.6299708046972752,14.02153483767368,-8.067366947586548,-18.12470267966714,forward
1897,0.0014797171637415884,-0.6857064281836152,0.8360948503106832,6.649871322150768,-18.639121792101236,-4.474988399370145,forward
1997,-0.023174977751821278,-0.871311271250993,0.5317284571319818,3.7166209698794046,-18.939450332548574,-5.216667542284428,forward
2097,0.04447393249869346,-2.226261506986618,-0.10619126074314117,3.985634800529527,-18.953264390144927,-11.980931299541393,forward
2197,0.6671553108401597,-1.2897918271265922,-0.8601350665897131,20.198290055075066,-20.33011099850902,-4.653356655110912,forward
2297,0.7463139685552567,-0.4221903701789677,-1.322570791786909,-1.72841191959199,-23.10026497113694,-0.14560752019106565,forward
2397,1.4217270393267274,0.9225359931841493,-0.687650255727768,-13.08619165725921,16.948025010214025,3.9424991677131342,forward
2497,0.1960065927574411,0.7638596351832151,0.8158575334459542,32.563101037859624,-18.65657463297791,11.734570645047265,forward
2597,0.7170192658141255,-0.5061535786315798,1.661893932056427,5.007538248956039,10.363123301222064,27.444620453101894,forward
2697,0.1257156070329249,-1.3810215194508433,1.2673825730502604,21.345090769551256,12.327353371602563,40.05940099158329,forward
2797,-0.11870404777042567,0.32699440457224843,-0.5339262594372034,1.6214395245236601,19.13198141242019,-5.661270168569946,forward
2913,0.2518358493439853,1.2402280241429806,-1.7072165903389454,14.23894146650248,21.391816093663312,24.246906883714928,forward
3014,0.11744944459944963,0.19511311451643704,-1.2276847689121961,2.65239852312914,-5.422313012249288,20.439559657316597,forward
3114,0.1057763232666999,0.3206590640708804,0.35589784297347066,3.871601377241579,-16.174874916925262,36.15707144703946,forward
3214,0.8351607843309641,1.1473439887404442,1.1234604243278503,-16.822190727587586,3.253073746713799,17.301895403565094,forward
3314,1.2443037491492925,1.2713961926057935,1.2875059081465006,-21.550582133372966,16.38494933768005,29.690661567316177,forward
3414,0.5364439413465559,0.464651355420053,0.7948539083838463,-20.86129993290279,-13.00226997670091,12.281656844734238,forward
3515,0.14010675515271723,0.37378508958071466,0.2240782199770212,33.587212771822166,-3.2410385265094135,-34.016131576226044,
3631,-1.0142398788914084,0.2507002694427967,-0.3122831576526165,-9.628153111620026,-2.4330463576039456,-57.574915684082406,
3731,-1.5666507663071154,1.3255924776956438,-1.4452233579874039,59.08938718912767,10.039244268516521,-23.863767422223063,
3831,-0.2777427362777293,0.597851911380887,-0.19006138408482073,-22.045352499112226,2.9431650121818715,-3.0234880368212216,
3947,-0.8086857421204448,1.2158546303868294,0.38516485399007794,25.713360451347715,33.439322100818465,18.503733782373242,
4047,0.627966186876595,0.4005643754348159,-0.7514180867612361,-12.547650024223922,27.689142932935642,15.796620748237247,left
4151,1.2026722004696726,0.4989940622657537,0.12096212889552116,-14.688161300666925,12.006325089101853,44.9717994011561,left
4264,1.0812490299336612,0.11553016697466373,-0.23276830691099165,-23.192716704194943,34.53287295297794,45.76146830695254,left
4364,1.4028167332820594,0.3253396231025457,-0.6849082635432482,0.025765461241058277,17.415196289064557,69.66011579771957,left
4464,1.948295337216556,1.135652674163878,-0.11553192054033279,-13.59704284962562,25.832157931581744,68.69380795470285,left
4580,1.1121358972370623,1.03256990083009,0.1660644224256277,-16.708138521279423,35.63376967358977,79.74676157907598,left
4681,0.7259934303864837,0.8857964543297886,0.389010423502326,-20.848880941444413,38.496756162321915,69.6428422493086,left
4797,0.2646126210696995,0.37994624255895615,0.1433124923914671,-11.989098498241436,28.054250695018673,68.68041395374044,left
4897,-0.4340773534581065,0.17122925784289836,0.8356430148899555,-4.640915892424557,19.42799668840666,84.1469265367491,left
4997,-0.7048332265231758,0.19921762722581624,-0.6647539487868547,-11.092574697974731,1.460504045978881,62.123493822230735,left
5097,-0.6258750598162413,-0.4332958476915955,0.07399637958109379,-3.66869694756801,-6.163240407468047,30.744812473248437,left
5197,-0.8550546945855021,0.21406506774574516,-0.9905687881857156,-11.139177932455375,-53.860255832268436,25.194984951836886,
5298,-1.6683479305014013,-0.6421157082602381,0.4843114569187164,-44.81209933307745,13.105039564273861,22.486328294948468,
5414,-0.7870806440338491,-0.5403707594014704,1.429115103751421,-54.57995286511268,-17.77378292803752,-4.414862670993346,
5514,-0.15572569150179624,-0.882004368570447,0.8859931459456681,-4.081785934796735,12.00061334340843,-9.843415914823087,
5614,-0.8632872470103203,-1.7359062398590146,0.4248275868147611,-6.966371189231758,18.157175106528673,-6.910948472985336,
5714,0.5106259748052805,-0.903729585905373,-1.8897692062288522,9.737462605323264,13.374298427960456,0.9999045830486647,
5814,-0.07765084696803241,-0.6432562565974891,-2.004549431619048,-4.380052611888376,2.3270862179149527,1.7071665094569595,
5948,0.9184135794918984,0.4792012742981314,0.047049920466542244,17.930172061916007,29.339371277924084,15.83474686418426,
6064,0.6666198887892067,0.7806400895923375,1.4347083937138319,-4.322251282263497,14.329409029606591,-4.067541575282673,
6181,0.06144872216982766,-0.10106880316287278,0.6244418121427298,-16.216252202917197,-1.3048288803120693,14.305635702426715,
6297,0.3151280987549573,-0.6771544345460832,0.589664513272047,-5.612676360833067,11.22383215080216,18.03197090885317,
6397,0.06273096226640046,-0.9458110703095793,0.01609013405740261,10.820858673734223,11.287883957291246,-0.8734869595784258,
6497,0.40187070879302916,-1.1625780904904006,-0.874853912293911,14.22665310241198,-5.853627505504545,-7.985227946401621,
6597,-0.030974298991682005,0.2716927885890007,-1.3637450982183217,14.7983851859453,-6.251260201528354,-6.7116341614942545,
6697,-0.9245046629086137,0.9902698052391409,0.1197580138027668,4.981367098490666,22.112028805789894,-7.109056402314263,
6797,-0.9781859111484139,0.564755405203998,0.9893804551839828,16.204702353030708,18.81564461610563,-9.247760239948152,
6897,-0.8629363146807998,0.4963388715818524,0.5728226840645074,11.11098376533521,-7.873301636472622,-10.863502959817199,
6997,-0.13999960498381406,0.028818098205327988,0.4988035081297159,8.637262564006779,9.278771006327302,-3.661980310292949,
7097,0.14854337878227233,0.24537293694019316,-1.0580746367037295,18.60372775182223,22.22321916283582,15.442318345421176,
7197,0.43103915480598803,0.5126137145563959,-2.771094944885373,10.235694169424429,-4.611465397383931,7.784037040436079,right
7297,-0.24775997820720075,1.1564183988168835,0.6974819139122963,5.511511867715069,6.7531010937190485,-1.9634941174974294,right
7397,0.10757182838134467,1.0975678581804036,-0.030938743621110914,2.183034966998445,-2.495333840853054,-17.166184667398817,right
7497,-0.6958741864547133,0.9205231920570135,-0.13852876524627208,-13.133531698396569,-3.343857846397258,-38.828020337067535,right
7597,-0.6671674396693706,0.8087433175265789,-0.6163286483138799,-13.074687911149615,-12.861533075079151,-63.00680120645347,right
7697,-1.2668150022953748,0.4054501016497612,-0.29794191308915613,-13.566430795539269,-23.435461627297194,-83.98302931742548,right
7813,-0.8233497158322483,0.9326248410001396,-0.4782815291047096,-5.985542790926409,-40.08180059696634,-99.57760794737187,right
7914,-1.0406759042657912,0.6757803697139024,-0.058763154613971705,5.688624649309023,-45.00162683726155,-93.61468887741066,right
8030,-0.933738501330465,0.662843731251359,0.468618213224411,7.267613267480585,-37.40341363093213,-94.07435377836335,right
8131,-0.3199978236831724,0.2653901813134551,0.2588262927532196,21.639389960508765,-37.49554605264643,-84.80886065978254,right
8247,0.7055687011908739,-0.28238544751703737,-0.33156419670581816,6.758780396013914,-18.715039344725927,-66.43409450931749,right
8347,0.6601011545449494,-0.4906038350611925,-0.2518330728650093,-10.411609106592692,-15.205406403870114,-59.002022239454035,right
8447,1.3935086605802178,-0.3544584578201175,-0.5757359411627054,-11.358781320875979,-4.2854288786743115,-31.396965765390423,right
8552,1.600536230904609,-0.576527383801341,0.7503232772618532,16.049643398493078,-34.005790669822645,-16.445476766557412,
8664,1.1280439527258277,0.25444793153852224,0.5225234064131975,9.78542931631697,-9.025879837212996,14.068662289173123,
8764,0.827280771670863,0.041672319081425664,0.8510247084170579,-11.902201416525948,13.322403504420347,14.644907420200527,
8864,0.3127274673540145,-0.6494254467517138,0.7930717011421918,-5.383372823130576,2.3878264498736415,13.350589987577695,
8964,0.20551027936292812,-1.079663075916469,0.2791659009486437,-2.8182242036762366,1.6558826744041535,9.594114010117622,
9064,0.29286395223774014,-0.5840121865987777,-0.5351192686140537,-4.8711735221767345,-2.9194529432611147,-2.033688825371297,
9164,-0.6538797958120703,-0.7884031248092651,-0.9767448454946279,13.622713261847467,-19.826095971728147,-19.577390001027766,
9264,-0.1975620055058971,0.5644631442591548,-0.4407458714365959,23.479000668161444,14.675684252600606,-9.265348830834581,
9380,-0.7191093699611723,0.7946934571251273,0.38858956774175163,0.003498164092744011,21.44065706887078,-17.720396461937405,
9481,-1.5588412615999578,0.8195616486608982,0.9702630822598933,8.60994607619496,56.75595551203037,-23.328941412096263,
9597,-1.8565419132791459,-0.16528905413895845,-0.034758594170212744,-29.733900079856944,17.05491405563014,-39.30393767315027,right
9697,-2.1298101344913243,0.18021657415777445,-0.8952642476379871,-20.36513791612014,12.9133050552142,-54.04121827923334,right
9814,-1.6918455643363295,1.0628101407930255,-0.9753630357474088,-11.122227964256343,-0.5096202642119267,-63.58841913503673,right
9930,-0.557409426355362,1.4153919910863042,-0.9987491720318794,29.026425670532436,-16.162643755669063,-54.95901128857547,right
10030,-0.4865333707518875,1.1290385167211294,-1.349497961679101,6.446041828731485,-32.06803185134417,-76.19981019214251,right
10130,-0.9898214769497513,0.995146763625741,0.9199649736523627,19.48229498476097,-25.329134989777817,-93.89568969005416,right
10232,-0.8616887257725,0.7397016377434134,0.3603840484768152,5.682071082800396,-50.79671791403179,-95.6259746823043,right
10347,-0.19804127692282197,0.422623354768753,0.31587504466474053,12.408732514242326,-42.71944548460143,-82.62877355974119,right
10447,-0.2977187718577683,0.2831000255271792,-0.07250526424050331,13.615030152804849,-44.54549997429893,-73.11663548004206,right
10547,-0.2289489678185433,0.7838900312989949,-1.7498703216731548,12.306984039950292,-27.35165645585614,-70.68286149384811,right
10647,0.4590307390592992,0.8518880472481251,-0.5189958168089389,11.502748901975155,-21.832631380054057,-57.056364307200454,right
10747,-0.7762969458214938,0.13777268618196248,0.4321358640015125,-36.79545166272012,-36.93300142732043,-64.77584752224345,
10864,-0.5688466931056231,-0.07238543725311755,1.2069044312119483,-22.888074899286742,0.7906593899477968,-63.76609284591627,
10964,-0.39888650535047054,-1.401805364282429,0.7728542580217123,-9.960004682634265,-6.008943019022873,-41.22205969776495,
11080,-0.09485529894288629,-1.0608034771457313,-0.5469207655668258,4.01898533358623,-0.2890911183545218,-11.179248090994902,
11181,-0.6177521052457392,-0.9705337158948183,-1.34297235930264,4.138575115763983,-26.05034490952322,9.4830696483652,
11281,-0.11093334070369601,1.0542322820618748,-1.2763368638783692,-12.775984101951094,16.25074978086764,2.7831857601208942,
11381,0.4747391803227365,0.7975788033030927,-0.013398995277285575,-0.6078642111295092,2.5286209812165223,15.717947214282455,
11497,0.23749584688954054,0.6365745868764817,0.30424539714753623,12.336096867513824,31.37430319772432,11.57811662437166,
11597,0.08948197187408805,0.32271132042557,0.1316045189410448,-4.200237209817212,-7.008089130908549,-4.467330049763268,forward
11698,0.05191730730719864,-0.4123044975891709,1.0335691410005092,8.169164086976417,-7.05674611789525,11.589244710076903,forward
11814,-0.6196427412979304,-1.3462313610985874,0.9432283603399991,14.158457078643988,-10.591731440289683,15.723780195833646,forward
11930,-0.1675846542628482,-1.0230692281655966,-0.3817003927499056,23.01516422917317,-25.131672513325455,3.3719704781342075,forward
12046,-0.3245137667376548,-0.1884530721053481,-1.438600140455365,5.594096538743339,-26.264003472044973,-5.041798904719646,forward
12147,-0.8729164414253086,0.7484665434792638,0.8826987805753945,28.240212840456024,-1.2147668596899275,-0.644760412778242,forward
12247,-0.6705946376390755,0.9777873402848839,0.841293003475666,6.501431247805704,10.797095591838103,-14.378152674618386,forward
12347,-0.6786623548910021,0.18375205480754375,1.1393646804243325,0.28864096619953566,6.934900238857278,-15.72583608277382,forward
12447,-0.7330805391032248,-0.21283084977567196,0.8394219489067792,-1.4589147463363836,9.637349107563802,-16.42452003863652,forward
12547,-0.9217368786957114,-1.388991183155775,0.1954997757464647,4.647193690045445,8.75767282265858,-6.39216188146384,forward
12647,0.021452172547206282,-0.3197849115848541,-1.148632859507203,13.811416020689286,13.434447635112528,0.3191247141151108,forward
12763,0.11987016894035041,0.05334580574035644,-1.8601392071187495,17.43050615808914,6.596569806528458,17.241764125659593,forward
12864,0.08954780365191399,0.4037190400734544,-0.07237666942477226,12.465564810778709,-0.5726837743446247,23.378163170349957,forward
12964,0.5382830664072186,1.18888537491858,-0.1826210049510002,9.056158065803661,-1.9136994771270976,15.443373609647942,forward
13064,-0.17700769511386752,0.7606497332260013,1.443195651552081,-8.042433342021416,3.7442234718627185,-2.3211725547541913,forward
13181,-0.152491751081869,0.3504784482732415,1.3979612560749053,-10.144703243075165,-0.30419933671603133,-4.941910803202795,forward
13297,-0.31128947044014926,-0.872162481252849,0.3190793936640024,-0.6823559617649607,-9.75042801191524,-2.094923392271165,forward
13397,0.5111827684378251,-0.7816115649729967,-1.211699848794937,4.289896676165146,-4.877112798546883,1.728110537494863,forward
13497,-0.3025743221301585,0.22325112150311469,-1.0566612627744674,-9.300420144675304,-18.935640794539,-4.476528607027983,forward
13597,-0.27335538803897796,0.504892472654581,-0.4086205483794212,6.4574465370981144,-7.169813496302465,-9.293245884725852,forward
13697,-0.22499615680584684,0.5012058930963278,0.938879517480731,3.940704962395537,14.734854181380426,-7.033376198763229,forward
13797,-0.45477450638692823,0.21755349438339472,1.1700164237976074,-13.656806151089585,0.7101680651784296,-9.065681057053952,forward
13897,-0.6758928901776671,-0.34130145460516215,0.9088923754960297,-5.1929915453002256,3.960524036932798,-5.643461730969607,forward
13997,-0.28444446240607646,-0.5364312279954553,-0.3339233270525932,21.368134120263587,10.669196030761382,-4.182393767497377,forward
14097,-0.004166691225394607,-0.529728807747364,-0.7642991956442594,10.402057087038429,30.808128326854455,-7.947866811641651,
14197,0.8118076004680246,0.495515280239284,-2.088301481539011,19.6383784676741,-1.3848379296930102,10.847514340743844,
14297,0.23276348460540175,0.873070828269422,0.42907472286522386,30.140439769445273,-5.93186988376798,19.42335728241293,
14397,0.521674826759845,0.9025134881138801,-0.2778092256426811,1.2638420890415865,7.079847525215526,17.248906795984134,
14497,0.515225504489988,1.3188377427384257,0.33311960945427416,29.942480396730794,39.743361308497626,22.765828173521854,
14597,0.9170075851514935,-0.25686668311804534,-0.6783908444732427,-5.268768652160109,7.719649700904015,28.875184791740846,left
14697,1.6142650426581502,0.2520180740430951,-1.1111503933310507,0.3668123211677729,-11.881647669766087,50.42231084939379,left
14797,2.010509509067237,0.45430999414771794,-2.542425305464864,-23.96163549529288,31.27444924715332,56.33352197224342,left
14897,1.4253439146496354,1.0123404750108718,0.5543471161752939,-14.737512832514852,26.150135680844397,65.67769887006276,left
14997,1.033525082663074,0.8119836146220565,0.5152519541054964,-2.3041854474015464,24.907447648157692,83.29157511679924,left
15114,-0.015079495710134505,0.7374222946345805,0.5851876601189374,-8.73117681132081,32.59712562521005,83.68673571123033,left
15214,-0.301480024087429,0.183270408770442,0.12952069840431213,-13.284783676245562,35.817539328303546,77.3731205783348,left
15322,0.08838234006911516,-0.037867958362400526,-1.4058774360269308,-4.25189819937825,31.88929946114328,83.5150247554962,left
15828,-0.3316826354537159,0.04403700238615274,0.5988111118018626,-42.63107991221439,24.21758317406077,30.180205130793087,
15930,-0.07402187934853136,-0.5546392309896647,0.3316834391713142,-11.39526733764854,5.123996816286165,17.82887352633555,
16031,-0.189389476172626,-0.5610812467359007,-0.28510581239163874,2.4242934701825742,-9.762896522245098,1.5082287121438755,
16147,-0.24298589567318557,0.4076964192718267,-0.3494803771466017,14.081396323106965,-21.867166524044936,3.4371195972021393,
16247,-0.6565822597038,0.9105367817021905,-0.17869360237419604,28.8279096374006,-13.635777706182408,-4.596654132168759,
16347,-0.6359814432889223,1.1419514820471406,0.3772989429205656,-0.8158239412842394,17.24450473906406,-6.561441289853436,
16447,-0.23959614363703877,0.3882249722130596,0.06715864251554012,-14.670781884323828,1.0778548640033756,-1.5093074551459145,
16547,-0.18609087301865218,0.2063300895795226,-0.4192091624110937,-17.159846251849046,3.8310646314043764,-7.454366861088013,
16647,0.23610987242385745,0.14507380297556519,0.4508177681177854,0.7702377112988406,4.840756555368552,-2.229360938487468,
16764,0.4133907949885353,0.22564459251090882,0.12493103252649307,-1.2932337804223264,6.8702857955353105,4.737430734265068,
16864,0.03153031630609184,0.4663137356743216,0.21948855409920215,7.242337298683307,13.543010930648942,2.6463540191570902,
16980,0.36267153835948557,0.6627873248890042,0.17248481086194514,-1.077954755519987,9.931592803234304,1.5983030057621823,
17081,0.047686953428178094,0.3437228365331888,-0.26270459549129005,14.789883307975925,61.2267719464781,-3.1240698294256526,
17197,0.1352522551930975,-0.4159264874786138,0.28327684339880943,-11.65630777621632,-15.381154001403711,-6.985540115137399,forward
17297,-0.14263671202175318,-0.917544614637643,0.6649748980611563,9.15357363884097,1.2309524870321535,0.691845282317077,forward
17397,-1.050009403669834,-1.1726843278326093,0.5172206238299608,-7.697565137996425,0.5357925352552106,-9.014117397688587,forward
17513,-0.3024944983595982,-1.6174961335338651,0.9078735538423061,9.431689550333779,8.991201259249548,-12.366807959343141,forward
17614,-0.23708505586525425,-1.230932810922712,-0.2921604070782661,4.454656206871486,13.900704522387924,-3.7499411939716656,forward
17714,-0.09236359172500669,-0.8895109448082744,-0.40037645164728164,28.32916922420627,6.021363291141719,12.693593237540524,forward
17830,0.18230824920739977,0.02979308071732521,-1.7583061415851116,12.918030692346203,-13.85002451874643,0.6860756400982674,forward
17931,0.4089533605303615,0.027238427798449993,-0.8008464267969131,-10.322892633237043,14.527356449490023,10.53068064816717,forward
18031,0.7427711083166301,0.36913083403408525,0.5067372237384319,1.2006700962949617,0.5642877109465336,24.327807059339143,forward
18131,0.6789983819123357,0.45296267119199035,0.8906254819214343,7.523839276457151,1.66982383755209,10.555691947134111,forward
18231,0.30972974684275684,0.06993775184005499,1.448432967683673,-14.027711036230665,1.0907620005439957,1.5701934689547008,forward
18331,0.1985612456763163,-0.6361711206421256,0.5787064814060926,3.892280628727439,-5.8938872017935395,15.373692019735472,forward
18446,0.577795138714835,-0.69309215452075,-0.7806172932386398,-5.924833935149221,-10.359179720750028,10.382364797887636,forward
18547,0.7017015043687075,-0.1412839091733098,-2.0707769307643176,3.894517515680618,-21.09606719505447,-1.9029365930990385,forward
18647,-0.13809735155906527,0.5236994644552468,-1.3679250142514705,-25.994796688550796,-10.71592818506261,-2.9810266717419562,
18747,-0.30820191622097043,1.1208715768784283,0.636834260725975,1.0522318362188958,6.991873408045293,-1.09988542572784,
18847,0.15558451119912786,0.38964141488224263,0.9980974301248788,-20.40071295641215,-21.354087836235454,16.63101202517164,
18947,0.051084144418686625,0.5713084801092744,0.3260153304070234,9.598872944421828,-1.8410719412482364,22.66108209995783,
19064,0.9268489610124379,0.0006073182433843612,-0.12129939802587032,-13.947277874790949,-7.940222976186761,32.96647493476765,
19164,1.2066394236002116,0.27021336368620397,-0.9383657227396964,-7.770256280011933,16.84634739913463,57.39890170917118,
19264,-0.18177715627169236,0.4720388353228569,-0.18566636399626732,9.276564001451742,40.24249104247465,60.62032628026184,
19364,-0.07377583216559142,0.8553146606959402,-1.2020973231911658,-15.570555147088166,-0.15236161678485624,44.08660346962786,
19464,-0.5812776836009695,0.6029293607756495,0.43302258370816704,12.279070764359743,-0.8299166492543856,47.18545346587348,
19564,1.9031157406665384,1.3339749599851667,-0.07952244952619075,1.2312868461363669,4.745708069765477,62.38225553893667,
19664,2.2281419139057395,0.9392707087554037,-0.47619770856797694,-5.486340486189457,11.914723714595521,75.40828005979724,
19764,0.4126093988198787,0.7710650365173817,0.4693354215830564,25.36713986986706,38.94461849638883,73.96590803163062,
19864,-0.5554443002948537,0.2071340994387865,-0.06968786873221397,-35.82553064963246,54.55599939169345,21.624945817961482,
19964,-1.059072196373716,0.4126534571573138,0.045890813559293746,10.143758115648765,3.9701225871507817,17.630699002662215,
20064,-0.6147093765489756,0.18362404451370237,-0.04371639212965965,-0.696629776469818,-16.645392988469098,30.073486840106224,
20164,1.1573111098729074,0.3722816992804408,-0.8231324928849935,-3.096946507901297,-31.15359246488453,79.28476075342714,
20264,0.0515963317245245,0.07166793663352727,0.8779659068346023,-4.871605104754915,30.66501195808059,70.79428236977853,
20380,-0.6236236276276409,-0.20377514439970254,0.34168694679141043,-8.793465575230385,4.891907415175955,38.04760975269105,
20481,-0.33725225227959454,-0.4312535282090306,-0.13687924447357655,-6.536903408373342,12.825091454536194,16.38451049802588,
20597,-0.2875910898687318,-0.2530354343920946,0.1569721844315529,-12.921501282218216,33.68944362822433,-1.88654990206312,
20697,-0.9045158409122377,-0.2442120764672756,0.4476987593144178,-0.6344072333786779,33.77339348331296,-2.5014302115741134,
20814,-0.504516771209985,-1.2101553958319127,0.6441495521754026,-7.847742214824788,-6.751332074724015,-10.353060725027342,forward
20914,-0.24421832354497164,-1.2419713606789708,-0.20816519605219364,-12.71589295140697,10.501257900770048,-0.22918539677419114,forward
21014,-0.5757676514752209,-1.6576419737003742,0.7574702264070511,-11.783392837234516,4.225342850772063,2.9732285167005057,forward
21114,-0.6371516561120748,-1.8148221017941832,-0.11223813969194889,-16.762178977992562,7.813003872706103,-3.4435658016747506,forward
21230,0.7165534749332815,-0.9729304017730057,-0.802506468963623,-2.5002438930926467,14.139557091436917,-1.6124025439214986,forward
21330,1.092385048715025,0.2689614639289677,-2.5408237154871225,10.029968017849999,-4.862927349414413,9.592183627903445,forward
21430,0.8308505199164151,-0.1285403090648353,0.5457569824844598,13.624590710095573,-9.13263654771394,8.42282194482506,forward
21531,0.24772359171956776,0.04392535870522261,2.220146238976717,12.169167044198714,-0.7308799201454056,7.6015557301544945,forward
21631,-0.0433703917035833,-0.35689532957822084,1.9442969152301548,16.052443776052783,-4.299630549506061,14.62372188094244,forward
21731,0.28404264013953506,-1.3592125693552195,-0.5482774408727884,20.110851680867857,-5.569920230402433,24.55027485834292,forward
21847,0.5726703430470079,-0.9657283614397049,-1.4444114570826292,32.161260518420264,2.062527378150971,15.817729447867173,forward
21947,0.2970822092535905,0.8554238201588392,-1.1577145761072636,-11.239188123603642,-5.707558787461945,8.027301057915253,forward
22047,-0.5968988119071349,1.0057388847887516,-0.04017360495626926,-6.378778979558846,8.035684261347798,-14.015883709909142,forward
22147,-0.7700935611367226,-0.43380043621286746,1.0145844545453786,-9.645418122294526,-12.086962302443025,-32.373020288352755,forward
22248,-0.5087471387887373,-0.2837869848780334,1.1335516102313994,-3.794742966058718,9.659047764783287,-25.55054923210212,forward
22364,-0.3021645357528701,-1.249425183816254,0.5907113919764757,-5.640757829831928,-1.0969232580621704,-16.43698854896638,forward
22464,-0.017541136583313344,-1.2382397729352115,-0.6651976009011268,-15.131155417402905,-1.7789298129624025,-1.1117476500471541,forward
22564,0.581449021579884,-0.2481681206166744,-0.8364356265723705,-17.314814706380172,3.3684546382589433,-2.429999452903885,forward
22664,0.2891951640645042,0.7039902728930115,-0.4563438380628824,1.7690676601311388,7.485514231250563,-2.7400672027774267,forward
22764,0.23545235836319625,0.40194910779148335,0.999697266536951,-13.936004647565843,18.10844512189522,15.811334683256748,forward
22864,0.43100868660248814,0.11421528498381375,1.8746774355590343,-17.490898690730393,5.069508128408741,18.61327123364003,forward
22964,0.25515158629585055,-1.1831864326246082,0.468668482106924,-19.062281039487498,-5.779662533208831,24.463676597403623,forward
23064,-0.25419750044140965,-1.1962506429895758,-1.751691691881418,-25.338145716840355,-11.029568764202303,-10.801905752561085,forward
23164,-0.5737436713669449,-0.05645312410593033,-1.2496575312674045,-22.270089628467744,-15.92179591760878,-13.178307003500587,forward
23264,-1.3398460439756512,1.3738133416377007,-1.0863917996495962,4.077905533574522,14.993815681119582,-11.526505153682104,forward
23364,-0.9543575840543955,0.2619963010914624,1.318225456058979,-5.783117328268388,11.576883775226472,-22.555420781045026,forward
23464,-0.8437773676373064,-0.03559752921238541,2.3866420385569334,-12.106679351029559,16.670259999689822,-26.484613459594506,forward
23564,-1.1000767722614109,-0.9222459241963923,0.7121066515922546,-10.368630995014033,1.758901350438398,-21.475415901556975,forward
23664,-0.2652368904478848,-1.1463944329306484,-1.035941715350747,22.367981607199656,-10.2449140710303,-15.043390901662827,forward
23764,1.4329536590009926,-0.38544951615035533,-1.679452969622612,16.445172823139345,-0.9382453704814919,16.769430931343823,forward
23864,1.0111626634031534,0.5578098238497973,-1.1372983955442906,1.291438081000848,17.31378847045738,31.358429838093212,forward
23964,0.365426243895106,0.9318675928920507,0.5232201565057039,-21.234206063470683,5.891597807761116,14.48243429531885,forward
24064,0.1899862364893779,0.6712593851581216,2.6371955930054187,-14.993805435835826,7.4142301082040785,7.814813019062511,forward
24164,0.29389260116573424,-0.4791980594277382,1.6129811403274534,-23.62393386725453,3.387904455694201,2.2870465817832804,forward
24264,0.13048068427657708,-1.1557549664720892,-0.20609131238758563,-21.180268059595093,-7.359755934478642,-15.778904945077526,forward
24364,0.5524970313291996,-0.16014496924877167,-1.1998147652119397,4.639235665888734,-9.798527057824117,4.306103434405117,forward
24464,-0.5376740676634013,0.9083514004871248,-1.694910066473484,13.114101517755175,-2.6073043335682464,12.340177051769261,forward
24564,-0.8079781783729791,0.28824571785256264,0.6041659168332815,-17.09473235094402,20.54822113682233,-8.963036974207,forward
24664,-0.26254408943364393,-0.4145633824318647,2.4163573778629304,-11.707440279890328,6.108063578031745,-6.6552500961221535,forward
24764,-0.3173983087092638,-0.5400605244085193,1.1012263806879519,-1.1305235199104018,10.150024814212252,-2.4581054678950762,forward
24864,-0.5644359639912844,-1.1669088131710885,-0.5422130262672901,-3.0801694288656303,13.579826504048956,-14.987333831597239,forward
24964,0.22429595438092945,-0.5764090181186795,-0.7841308543175458,3.4682983435461896,8.464216306289922,1.343836624270541,forward
25064,0.8757646704632789,0.1529946591027081,-3.119571113425493,-3.7993264498786194,7.25495265808032,15.273848314448227,forward
25164,0.49671059097107495,0.6311020006842911,-0.9965513697266578,-3.1320013865993297,-8.594824037372552,10.98515204402971,forward
25281,-0.10721209169086068,0.5346688944980502,3.1342770996481177,12.424492321978484,-4.099984546953411,14.766115957211573,forward
25381,-0.029121282402984797,0.1555553033709526,2.1987007153660056,5.189123523795883,-6.81649933648193,7.966486761092752,forward
25481,-0.22901874511912465,-0.8224635075822472,0.3441916230887174,-19.271426554515166,1.064517852431868,-12.257349909025455,forward
25581,0.16768760318066925,-0.6367471669644117,-1.9416092835813759,-15.587859431350394,4.358784683473425,-3.064252526778562,forward
25697,0.015337123733013868,0.999670232399553,-1.0327256759136914,-14.212594011779155,5.7055844359049885,-5.067347227310079,forward
25797,-0.5002055569473653,0.6919466377474367,0.5801853217869997,-16.03801500143113,17.1509277323403,-16.366936421291435,forward
25897,-0.9032483782596885,0.11707812706902622,2.424720717060566,1.8939179686302714,1.9910812515551108,-16.85267727694794,forward
25997,-1.3907044168144465,-0.20176263553351162,1.8639385994017124,-0.09207868733544104,-2.2814340872762338,-23.671987663160152,forward
26097,-0.41168914216980335,-1.0730582708239556,0.19273264912068844,9.214873732868186,-6.570215948502787,-12.736524391568638,forward
26197,1.5449571131542323,-1.0352189540341497,-2.2677982169896365,15.257517332142726,11.871696084145379,9.10214316816442,forward
26297,1.4593036135271191,-0.21421149047911167,-3.3082103557527063,16.812995585417458,-0.104321748061836,29.83223431333762,forward
26397,0.6380730087406933,0.3388023312658071,-0.4218710750967264,21.921027688292362,0.5532862505452,28.682180721269212,forward
26497,0.5785653193697333,1.1426511547490954,3.4809956108659503,14.755964588557642,9.242043371612851,16.33323626792659,forward
26597,0.07189838438853621,1.0135758620247244,3.086853085172176,-0.21665408072048048,-4.22242123735459,13.487062289836429,forward
26697,-0.03822983221104368,-0.07514847222566604,0.025345453658699987,-12.389711291177486,-0.6347460747945339,5.469760201979251,forward
26797,0.3350803881332278,-0.3520779924243688,-2.021189016252756,-24.186765360525673,-10.307382981179236,16.364883949445847,forward
26897,-0.23041452859276904,-0.3639117842115462,-3.181444509014487,-18.321558976830662,-1.2667714931435814,2.932410239003452,forward
26997,-1.4494154028497634,0.20694661404266954,0.03084872725009918,10.64103516081342,4.110573047714223,-20.913620889492382,forward
27097,-0.25602056941641493,0.3467202647835016,2.271359124341607,12.89676233704443,11.611050942775815,-22.598442435079644,forward
27197,-0.8206652990538627,-0.5038941092669964,2.016585906371474,13.62235723823698,-1.238948931002946,-12.471095556459126,forward
27297,-0.03445968428887427,-1.090270248518139,0.19530629900097846,17.09658674730368,23.006264492684643,-12.101091402514843,forward
27398,0.15768296304941176,-1.0176068711064756,-1.2348615286737679,16.603880806241055,9.028160266622134,-12.902971832773618,forward
27514,1.443113818487525,1.3409933143146335,-2.407949030479789,33.09495420815018,17.292278497213715,13.4369594371798,forward
27614,1.1094514804586768,0.8893947710826993,-1.343376848450303,9.335942251001248,-3.907899990698789,20.630226095544796,forward
27730,-0.11366462883111089,1.5500705106452106,3.578993043759465,38.348995264912446,2.2672486381437635,20.387585332827385,forward
27830,0.5223175816427916,0.5021601250812411,2.933056023645401,3.4138137110935864,-13.194668721657353,8.29743930845749,forward
27931,0.20177047178009525,-1.0170824088409542,-0.9206324976503848,-0.17170153754358536,-23.166567324957548,-11.039285562070292,forward
28031,0.25593992366194723,-0.48885932948142286,-1.199883154273033,-10.771646306990636,-3.7365903085784065,-1.7049050765114506,forward
28131,0.027467596911825237,0.2794908951193094,-1.8222025674343107,-15.686989381869372,-0.7453846806215739,-4.9377243241284,forward
28247,-1.0733541119653731,0.42618396985977886,1.1401859336793423,0.7144493664884111,3.101398937466499,-11.257890889098428,forward
28347,-0.4596381669005379,0.026792437596619128,1.9501760363966225,-1.227117976143426,4.514425057864152,-6.7417642603572965,forward
28447,-0.630461510823667,-0.39369332062155005,1.623545788961649,2.831346491175712,1.1117141394315386,-3.87086542435851,forward
28547,-0.4471833571381867,-1.1788412430271507,-0.2627425894141197,-2.684784932295813,7.555048972095878,-5.2479037049061885,forward
28647,0.5413246991254389,-0.23877982228547334,-1.2194558697491884,-10.602415563698875,5.253695278435536,2.147348936132421,forward
28747,1.4708303851917386,0.6094184305340051,-2.9820377889573573,-12.913165036336215,-0.9087242256716389,26.082504855230223,forward
28847,0.06254082825547083,0.4809866964101791,-0.0007926116824150085,7.507985553619905,-0.6923857743960071,48.63847717405073,forward
28947,0.07368393893132451,0.7612035677164792,3.1847184161186215,-7.90601226618146,17.608190114252437,23.31809507169428,forward
29047,-0.3003031257951632,-0.11018792916387318,2.2755063071489334,-11.513777096163786,24.814225811270774,1.5270012736342442,forward
29147,-0.47899504766892637,-1.3696793105728924,-0.4859200611591339,11.833242119118207,-14.917437090725914,-6.5985053113845105,forward
29247,0.5014227507174015,-0.15640943598225712,-1.6790280222088096,-1.6031130597634582,-10.189288156656069,0.9345588825986832,forward
29347,-0.40315340554732826,0.6607127105720341,-2.3990824179351327,7.601580489590236,8.222445538918041,-2.6654866596827653,forward
29447,-0.5420987522378563,0.5189107688739896,0.20406652856171129,-7.719397837678371,6.812061421068714,-32.08025105976933,forward
29547,-0.17529349334081634,0.4317233376778662,2.5109651683181524,5.82873573484808,4.015493399373061,-16.839759681680153,forward
29663,-0.5748365811701863,-0.2353299740925431,1.213878361877799,3.1673239233354624,5.352911033205965,-5.722183930022235,forward
29764,-0.4368454299319535,-1.4363850947543977,-0.11224281586706637,2.6158858259301327,24.867111966014182,-4.258044515857614,forward
29864,0.32053470703884956,-0.976618734896928,-1.0760510228991509,8.485125222886623,19.902269656446716,1.2521463505832917,forward
29965,1.4900311986155808,1.1923002979286015,-3.4374849704414605,24.03242016075631,-16.123443592475066,13.651132825210244,forward
30081,0.6615407588940113,1.144716562846303,0.9779618200689554,-3.097552900633547,-5.2916711302208075,20.56323389261802,forward
30181,-0.04260331632122397,0.2288468956835568,2.4681442637234925,-2.3702564285640184,-10.730283535150685,13.579592570069883,forward
30281,0.3613105522045865,-0.5699773776359855,1.0094956069737673,6.729011870290059,-22.763394918630034,9.597250774493949,forward
30381,0.3245353575149551,-1.7625728591188787,-0.9953671283781528,-25.880199774656322,-2.0112576303633283,-4.69388187500389,forward
30481,0.04861912427833304,-0.34124840924367306,-1.0847738430589438,-24.02125963165251,-1.3878987082148222,-3.2404507033539693,forward
30581,-0.3946645037412643,1.208028612936288,-1.228867256695032,18.54728136097395,16.002769517766573,1.3582413865083922,forward
30697,-0.9638920859232545,0.3036760728269815,-0.18721417796015738,-11.383172780175741,26.669134435116984,-32.62858206143254,forward
30797,-0.7947309395913035,-0.20663433322310445,2.508501993075013,-1.9037295353729946,-0.9583822622585704,-21.40925698170894,forward
30897,-0.5924519155008718,-0.7698752422109246,0.745243197518587,5.979422514543256,-4.537718564254835,-24.19146282312735,forward
30997,0.008099902488477528,-1.552317412789166,-0.8941273525625467,-11.151979414507272,13.429278035684474,-22.451733386802353,forward
31097,0.7190363777901977,-0.5275765981495381,-1.37669167355299,-2.2443730539529216,10.479350922780878,7.402617079067765,forward
31197,0.9273400324650108,0.6678996994666755,-2.413576807233691,-3.5228830809588163,-2.6885537026137794,13.299884370726813,forward
31297,0.1346823189511895,1.0171548895552753,0.8002326788127422,-1.7127352480646356,5.824469854824584,16.742277514298436,forward
31397,-0.20880996022913603,0.7542161930471658,3.5722277874082327,5.6258552108366064,5.37334653231582,22.31717695260581,forward
31497,-0.5402352233882993,-0.26033698957711454,2.1937539066135883,7.421129453039438,-3.751117267169377,17.856301858495026,forward
31598,-0.04204844065112993,-0.8244663718372582,-1.3838421298295258,28.55993228795703,-24.979972304312177,6.203532547155598,forward
31714,0.06879435852516907,0.5140802799776196,-1.6235785221874712,10.994799686232353,-35.74980775739912,1.1506017147493004,forward
31814,-0.08015703936899081,1.1668740341186523,-1.8788602742016314,3.210690928809989,14.500769938145748,-6.7102348264880485,forward
31914,-0.3856040856575593,0.41589287746995685,1.0043868856579066,-25.55842785530973,19.53128622413018,-36.89923980225305,forward
32014,-0.11256022951947524,0.23183950162827968,1.9543126978099346,-11.301179774284323,3.455986927567242,-16.90334874285297,forward
32114,-0.6645468819074333,-0.42132133225947616,1.754953908547759,-2.7935608174701434,2.710863234877156,-4.368133931786703,forward
32214,-0.1945002250487916,-1.4781994526550173,-0.25119068330824373,1.6117986057884814,-5.210030305958468,0.04788306785680083,forward
32314,0.8782171781819313,-0.9025541123852133,-1.8672580992132424,5.061044243366626,3.7483450641399982,4.413951267625972,forward
32414,1.8188839444056153,0.5471214027054607,-3.027365123414993,0.24185248951808225,-1.8530937145176936,27.091759220200693,forward
32514,0.5096051438575611,1.0024237688913942,0.4194382949918508,5.0950193118455624,22.706589942850332,36.212324262330284,forward
32631,-0.027100115306302904,0.9148068602368236,3.442276880893111,-9.629857243817943,3.750201594933772,26.972744881460514,forward
32731,0.051054735661111766,0.3070662997871637,1.9964514653593302,4.239045064020755,6.658955900633708,23.77370796292186,forward
32831,-0.5933126239834353,-1.1480210112191735,-1.7331635170221327,5.898077949736165,-27.991172190486314,-8.999629712685344,forward
32931,-0.2566851525386795,-0.22558336384296415,-2.648347686138749,-4.71857343574031,-17.67051388288151,-15.173879958208627,forward
33046,-0.5706438787207007,0.5909150978550315,-0.4575228187143802,0.341990720032859,-0.5344287385770295,-3.7737452570028065,forward
33147,-0.48143330766651776,0.6949629168286919,-0.3697428284525871,-12.376844922328475,-8.358565232660872,-28.048270864400326,forward
33247,-0.7873250472489743,0.374758026266098,3.4704689561545847,8.227595501552232,7.820780896849809,-23.56659272162498,forward
33347,-0.6959545582145452,-0.30550241147130724,1.0027999087274073,9.477656723447964,4.197169174219407,-10.83867095331597,forward
33447,-0.3492680130375549,-1.0345330175966023,-0.522371430721879,-0.23515380817001869,8.349643298057542,-13.73938996834421,forward
33547,0.8490414987105875,-0.37220658821761604,-2.2789111471563577,-21.024555114444436,-2.2682541700556365,-3.9132198542885823,forward
33647,0.5745358811905608,0.8830907025024294,-1.8362860378444195,-11.43945695403123,-7.704157124319134,12.219618236503011,forward
33747,-0.19049506279435008,0.690968001973629,0.683660893830657,0.46935581880702554,-9.00739051512977,16.255855347272224,forward
33847,-0.4495680603176355,0.22379764946997163,2.883843956708908,-13.477914958990489,-4.199306596542797,8.09465782218898,forward
33947,0.05715464170509949,-0.2327773670002818,2.0920342383265496,3.0849928230801287,-13.783705089452898,15.187004166698808,forward
34063,0.06769843021435663,-1.19027449118942,-0.5119505744725465,-10.037907258986491,-13.38472471172848,-11.83638229858912,forward
34164,-0.32662615578174586,-0.05960208965614438,-2.0567425601929425,5.62315856677492,-8.242946351711835,12.663315862723502,forward
34264,-0.6126107603019103,0.9027185091666877,-1.403452254706621,12.690711751484423,5.544379164887994,6.626809615305043,forward
34364,-1.0093903930336237,0.5040713655300438,0.925018749910593,-4.111155321340966,15.111592048072696,-12.822126298662763,forward
34464,-0.6878055193547159,0.24969255370497703,1.9181091655284166,-6.526321310914877,-4.010711840067229,-20.76552702036087,forward
34564,-0.7809249709483236,-0.9895461671397089,1.073372159078717,-2.8268771995809963,-12.07132458433828,-16.774242799614097,forward
34681,0.033565804189071055,-0.9580344459362328,-0.6558078412652015,3.7365057849874272,-6.458726770680669,-13.703430729911386,forward
34781,0.29190716296955943,-0.45333734972327944,-2.4558447541207076,-1.9318169807873795,-1.9050434930145759,-0.21976736632153693,forward
34881,0.31078616056051106,0.545094719183445,-0.646948242983222,12.588248668650477,22.47938540765715,17.452016131332805,forward
34981,-0.054454132308438416,0.5184554263219237,0.12918810544908046,1.584990753626416,3.9655954523915327,21.931310538087818,forward
35081,-0.0013191928397864102,0.5312924038022756,2.052653829574585,2.953966316024012,3.259014517187829,5.2850142571009835,forward
35181,-0.1402162982081063,0.1073641039147973,2.027067552897334,-1.5617892413461174,-16.570359945341924,-1.883047722566196,forward
35281,0.607012830697,-0.41869565993100405,-0.5163222136855126,12.88982201107405,-18.47048271394633,1.2205533105773976,forward
35397,0.14911107740132137,0.035195232021808624,-2.3476193572014568,0.602688155038256,-31.793444586331322,-1.768006526210554,forward
35497,-0.42293746221922335,0.747414111816883,-0.7130050617367029,3.853979916069769,4.5016794979860855,0.8615924519431131,forward
35597,-0.4176409632463008,0.6228650643453002,0.4524398163616657,-2.318409743234921,6.969584366349426,-4.778735022610252,forward
35697,-0.734115435108915,0.5849640804961324,1.8276947351098058,-5.8255643926390785,11.53575835246018,-16.094145496030297,forward
35797,-0.5669788534071296,0.3009364187300205,1.2712801650106906,5.031338896892595,15.320669261208664,-8.638014738589128,forward
35897,-0.4710898640349507,-0.4802648118764162,0.026437340548634527,14.297457404669272,2.3179651406086355,3.461039133118936,forward
35997,0.5038272545758634,-0.07325491356402636,-3.5286066723465916,14.611314842315112,-8.488400298593644,7.134042941845462,forward
36097,1.2636036390334366,0.48380409191846846,-2.124075390231609,-8.893581634310786,-2.258440041991974,8.163249996928833,forward
36197,0.5337894813150167,0.0295364756077528,0.4500006065160036,-1.4775317075797227,-17.488989652857374,9.844381532816996,
36297,0.3113251993406564,0.5282850386798381,0.6916939781606197,28.45956607319828,-1.9047672972400134,-2.312795114293759,
36397,0.11165833964315243,0.370673679561913,1.1517056910812855,-3.715077774013805,3.7573391426164355,2.868815414858521,
36497,0.09980926808845252,0.05696954919546842,0.708881259804964,-2.627983798497518,19.823295594168442,-6.088649192202807,
36597,-0.15876425548009573,0.07320698276907205,-2.4068320091485975,32.15050638557208,84.76703941149455,-16.516987139620152,
36697,-1.5756205469653008,-0.2897232430592179,-1.0082827240526675,15.028239834536446,-2.0885350309630875,-34.92791743419314,right
36797,-1.6212342971488833,0.28045447945445773,-0.8919090919911861,2.313839066019713,-3.0787540856035567,-46.45454467750666,right
36897,-1.9428724353849887,1.3065104683458804,-0.6016968963712453,13.03385960161222,-22.826394875986942,-43.79369422216645,right
37014,-1.5011824149660766,1.029757473757863,-0.036221652460098265,13.020311921393498,-16.70391404927777,-54.178621194766485,right
37114,-1.3325911044113337,0.7300847913533449,-0.15637129592895507,7.095282898966109,-4.717993296547681,-64.40062424999962,right
37214,-1.0623652465697377,0.7137392212301492,-0.3264589825212955,-4.412988210953,-9.255480915031205,-75.50110916080688,right
37314,-0.9997418363310396,0.06542670415639877,-0.8377648293495178,9.743707105771948,-15.816552947782638,-71.32302097380754,right
37414,-0.03500087849348783,0.9938584773808717,-0.741888041871786,21.468915269014417,-27.72227959569396,-64.04858263979882,right
37514,-0.039933220329135655,1.0244412471711635,0.31232056705355643,14.245034849015777,-32.35921647604016,-56.91058757974487,right
37614,0.08490355804264545,0.41490211286693807,0.6449912636965512,11.293109052006306,-16.30349250163848,-61.432777282034856,right
37714,0.0935936449766159,0.04368862733989954,0.18106091602742672,-5.777551577868474,-12.262057616910887,-63.25817948866661,right
37814,0.05386186550371348,0.1268187459692359,0.6392267088204622,-11.39352734695748,-29.484362533625113,-57.461712128778615,right
37915,-0.09029701458401977,-0.5392226122796535,1.2332073317259549,-46.561908421070086,-54.36106579278128,-64.23127653971834,
38031,0.8662332373343408,-1.0808040626451372,-0.9904629897236823,-17.04960699864504,-20.315772723893872,-45.29975093415426,
38131,0.7235812546782195,-0.21825433612912892,-1.65592011834383,5.378584433635574,-23.452289505864815,-22.489067200805643,
38231,0.35551359289623796,0.3169035109296441,-0.9639303721070289,26.658629604173505,1.756325088460834,1.9718916216385485,
38331,-0.3333062180675566,0.2559459150113165,0.6616624125123024,2.0805119065658495,4.093256383734126,6.682520480157075,
38431,-0.9269741217620671,-0.017228928828984497,1.001705683749914,2.727095606326515,-2.3907211694212576,3.5631312513035858,
38547,-0.37635508619919417,0.15246230579167602,0.5886988831102847,-11.175316463353912,-5.471352916716333,-1.839660439967571,
38647,-0.4474553424799815,-0.3033969636246562,1.5636685356259346,22.455063104022734,2.7863509124709607,-3.8352489760446553,
38747,-0.8709411958295852,-1.1031783915385602,0.018830957198143004,20.740992980862185,19.47200188968176,-0.4014866302629889,
38847,-0.21206819484010336,-0.40262306153029204,-1.9404051684886217,-2.9152790573480023,6.301145768792012,-10.581686793341532,
38947,0.12668397714104504,0.5056280934527516,-0.8209376131892204,-40.615415956062755,13.544171209034198,-7.599569852653314,
39047,0.052741629302129146,0.4174702097892761,0.988123148599267,27.406154535243672,-10.465302077431808,14.677786243317676,
39147,-0.03221358586251735,0.8080144187301397,0.6938724912434816,23.947203305576647,-1.8915630474704979,15.42686333487673,
39247,-0.06445040647014975,0.13554536552131174,1.0240455258518457,2.5388184536473513,-14.356454871172549,13.7507349125556,
39347,0.40105058804918076,-0.13673837469816208,0.10491115780472755,6.7514413577507355,-8.749566241887422,14.494568126379377,
39464,-0.140804674289003,-0.6865392257459462,-1.311837800848484,-4.540284580948644,-13.492579375138506,2.532214727937007,forward
39581,-0.04218441505571827,0.1312136199273169,-2.1210510739743706,-14.88741328668183,-1.1845944990313961,0.9031984959113929,forward
39697,-1.042201798658818,0.2631482476055622,0.6689695206552744,9.812746657902437,5.4689802797534,3.1279188544663663,forward
39814,-0.6983584044858813,0.25092589489221573,-0.06139759477078914,-11.151333961630705,-0.6993547551443886,-22.129085495694707,forward
39914,-0.9475715041108429,-0.27496348082274197,1.1080226166993379,-1.2454294998648188,2.8433217337814485,-20.84845576216858,forward
40014,-0.9284596841447055,-0.7042661672249436,1.3411638485759496,9.63301279121449,3.0314614289035653,-13.190115546801893,forward
40114,-0.8293680993389337,-1.0924541684284805,-0.5831751512527465,21.264537226027418,1.3184088972076415,-5.929804605317697,forward
40214,0.2784446374693885,0.07966799547672271,-1.7110878788143395,10.53507672867172,11.194659559083389,-3.1800184702381658,forward
40314,0.71537880513072,0.6467880839854478,-1.5461545062452553,-1.2664822773209137,-17.39019096651314,6.496566872456186,forward
40414,0.8162156992338597,1.13140583037436,0.5894394723445177,1.668681701856817,-2.1251109074119174,16.757945968254447,forward
40514,0.2717439342543483,0.8478378950744867,0.8230816394805908,-4.150809265227945,-0.22977919634515911,0.8368874976326183,forward
40614,0.01679451946709305,0.730039783167839,1.4385487025290726,-8.22560962405105,-1.4059311546755964,-10.62637842862822,forward
40714,0.0960758902464062,-0.2447095045953989,1.0424024357974528,4.777155968251509,-5.012306574770354,2.4768993737266007,forward
40831,-0.14310924317063764,-0.7844204849138855,0.9151409144967794,-9.590051755108755,-8.54644153861312,-18.473998553821595,forward
40931,0.524101871243678,-0.5463417966350913,-0.6542471678197384,6.975746050754423,-23.21256011128112,-3.323075715187025,forward
41031,0.31720983693245797,0.434180813832581,-2.1042408089488744,-0.23145558089957413,2.554528742512027,8.917144933173685,forward
41131,0.15127568982299416,0.7081941543236374,0.22802023560106752,10.476396865964848,7.817239443765158,8.930419405825605,forward
41247,-0.34376302241310475,0.643473844870925,0.6397972021847963,4.941587222990865,4.681915383578028,1.2560967612444978,forward
41347,-0.3933932416964322,0.42399873477518557,1.0272972211241722,-3.243271784924596,6.739101767241461,-0.7640411822569051,forward
41447,-0.24963430244540794,0.1148711185440421,0.22196225073635578,-18.658902019937592,4.6650401205730425,-7.997214928394993,forward
41547,-0.6990528895560651,-0.7992951057016849,0.7265753219276666,-8.756112978206879,3.014715085719163,-0.9401819425546021,forward
41647,-0.4777258679833263,-0.7476447057023644,-0.36968905243873595,19.206608059291746,11.876722249600862,1.3904077355177442,forward
41747,0.18990027523897587,-0.03638984863385558,-2.08934719119966,-0.9722392219806454,15.694574306942672,-3.6013030441406713,
41847,0.3461303360663354,0.8623800690375268,-0.7893874596714973,-6.711599583661582,24.130549488561883,18.11349433923915,
41947,0.2312240000784397,0.8770882472172379,1.6393530144244433,-2.104602197211896,8.007762448020786,20.32030967705005,
42047,1.0379558316521347,0.4057444084212184,-0.4791133037537336,-9.76700061216263,-12.12119264924219,4.8220384219481325,
42147,0.3586355973742902,0.043609424623847,1.0649234796851872,20.678153532950777,-8.02273251513416,16.64442993179613,
42247,0.5932715613206848,0.21542115852981805,-0.30552199295461174,9.649832132045645,-10.708177627901938,4.034602134236641,
42347,0.3156715945145115,0.3195005416855216,-1.6345488290131092,-15.123399737600355,-11.144840159277315,1.1850554300786662,
42447,0.15279292598553001,0.764919081108272,-2.0032769274652003,-34.48342238338705,-5.656824569193914,-14.703076726266941,
42547,-0.8917633999101817,1.2645265990972518,0.6048375324845313,-1.9288328284503187,19.512467345419502,-4.017584291032731,
42647,-0.4162219998264685,1.6034095943838358,0.2186409973591566,-7.355703924753532,23.312048646731526,-10.118161127960496,
42747,-0.8119715588580817,1.0398960059344768,0.5618383487135171,18.346082771045594,5.151877648478156,7.107942227705904,
42847,-0.21929544267989695,0.9031006403520703,0.15906009662151335,-3.095821661122361,24.553898273697612,8.412480184648013,
42947,1.2622620151661337,-0.22132292991951108,0.2935866404891014,-47.97894727760512,3.8948321312692618,28.7485325939613,
43047,1.7022504923641681,-0.7901984837934375,-0.5659972219586372,-33.576072733285876,-15.33109042233481,52.97175067408733,
43147,1.051789711215347,0.10302958184182644,-0.7239028878480196,3.7059586176981916,-16.23730455348647,65.27677359597219,
43247,-0.33662571787908674,0.7561793098136782,-0.32751638261973853,7.6701649803672725,1.7699246354285638,32.284070734791676,
43347,-0.9035404930740595,1.255489160030335,0.6683738928496837,-10.83587399085085,6.255303673517002,13.258696622484345,
43447,-0.3653330491863191,0.5446325084991753,0.030105215406417845,-26.229242931811484,-10.884947192490099,29.135718942536396,
43547,-1.3355018772915004,-0.4409374484859407,-0.9066402126550674,17.228380369980954,-6.6546127540952265,19.154164159297096,
43647,-0.5203274672714993,0.08903130549713968,-0.24448913984298704,-15.848769242550295,0.015114461581297747,-13.242355394895089,
43747,0.1867194532457739,0.1289804540477693,0.5935246958315372,-5.865950020540895,-2.347117455203308,-5.240092956703457,
43847,-0.18461977755278347,-0.06943433236256241,-0.5200198991596698,-5.342937676357277,-4.8908790448190445,-6.6847962138111585,
43947,0.4997380490334704,0.16877996499463915,-0.3577478547543287,5.353562462498055,-4.866747559594566,0.2341722352810938,
44047,-0.15937263316940514,0.3639674599215388,-0.226214062961936,3.56558051445127,-5.503795461500247,2.184756814999523,
44147,-0.018716317842528224,-0.29488369456231595,0.16999533213376997,12.634718714442306,3.406597616235468,1.7188537101787917,
44248,-0.23002536487840114,-0.6367255396544933,0.1838368104815483,-1.2614473606855565,21.906834555197076,-9.33381208575385,
44364,-1.4712093015067278,0.7466347980074584,-0.16499182475805282,20.801030343666596,19.429834009293394,-40.304536480895045,
44464,-0.23152663628682493,0.5923914540179074,-0.47712826741635794,34.8827357328335,-3.9485660832433984,-21.189623711210718,
44564,-0.3604854264920577,0.02174859821051359,0.5859627361446619,15.38571656776928,-7.470144598070742,-22.920977628065984,
44664,-0.06703421241827309,0.06614478929787874,0.5078811330765486,14.551907564461633,-14.163207475211731,-25.584006913751427,
44764,0.35122206971477715,0.1252262160807848,-0.06485153461694718,8.60757258545838,-17.025450327097996,-17.111930767274114,
44881,0.9002535072926431,0.05772182886749506,0.07757014641463757,21.47355467500815,8.876576170824748,-7.417370287674992,
44981,0.7353050102196633,0.2670198283419013,0.016611527583003043,14.314777910630777,-0.05278594306167995,-0.8534719439893497,
45081,0.2200823552738875,0.3256576030105352,0.2677466813117266,32.35543938142914,3.181470098880205,7.153269924359048,
45181,0.49216169549506156,-0.1205924188002944,-0.23284663284420964,12.17196912930571,7.647545955157129,6.02018636417036,
45297,-0.47841918400973077,-0.12809446499347685,0.2860492307215929,-12.319321922912273,11.98359251199676,-0.8037785825178047,left
45397,0.2224809408482164,-0.47357262076139445,0.38861061052978035,-12.913315300497956,-3.985137050493762,2.110831756621771,left
45514,0.5334576920773834,-0.059979544666409486,-0.1769523116648197,-5.381442014029577,3.8826829322831014,-2.617828587862178,left
45614,0.2898839865788817,0.0906529153496027,0.6168909583717584,-9.113349801045118,5.5676333976909484,1.2334125290721218,left
45730,0.07440101485922933,-0.5167030296966433,0.9720908822089434,-22.10565453174698,8.337261018865956,6.069908860667584,left
45830,0.15034801705144346,-1.1417506987780333,0.9207108235836029,-12.581889762533196,19.746370588641174,4.941744744228599,left
45931,-0.05371420066133141,-1.1337062162712215,0.4350421068370342,-15.300233335211987,12.377819078058847,4.6191809498251075,left
46031,1.0655648463286458,-1.265964230684936,0.03193886057436466,-21.024256293668248,6.053690149596566,15.345548225260435,left
46131,0.8052338481009006,-1.1409449353531003,-1.1582558433771133,-4.421105037007914,17.366251153472245,25.459709423688242,left
46231,0.7449161575213075,-0.1461579449504614,-1.6239140377521515,-5.518000974313405,7.811963976404969,10.602501794837147,left
46331,0.4193788198895752,-0.041812604334950446,-0.16952537653446195,-1.686822043962136,6.871499861660281,20.539179673908524,left
46431,0.3986920056916773,0.7635472082331776,1.1818296111881732,3.6390355704367603,-3.771045624733359,26.39116793401227,left
46535,0.9576156360022723,0.5148047948598862,1.1127741951406,11.753274264315698,-3.460107239184052,45.55738566964715,left
46647,0.9553283287826925,0.18172434837222098,0.9237976836830377,20.47334860314065,-10.741152073667466,54.65524545542832,left
46748,1.1874074113205075,0.09257043940871953,0.7279179687082767,9.308591612243578,9.741753671669324,43.27203169411756,left
46848,1.81151750729084,-0.10119359858632088,-1.0152508094996213,8.078001552124258,8.722511862585002,40.56268348057567,left
46964,0.7939571056745945,0.13966595258265732,-1.2833277456790209,-1.3228330455208115,19.069377606035143,33.324701281261895,left
47081,0.47795116463918236,0.9088836076676845,0.2687643339216709,5.4999995838690126,36.493051867406976,48.099483040982925,left
47198,0.6532730620905757,0.8521554660126567,1.0071540122836828,0.8365307803310438,30.996122453569885,53.165140650247075,left
47298,0.22735797230005264,0.9104206079766154,0.15307751508057116,-10.587181680528808,30.06383236771441,52.33224347719362,left
47414,0.29341508331447835,0.13272329383790493,0.25457448052763937,-9.201121146974366,25.55671518537535,61.637505372216815,left
47514,-0.02216499699167907,0.210695299051702,-1.022931427130103,-4.075377082921148,26.842361692846847,42.53526943363204,left
47614,0.20325959609299896,0.5523901368886232,-1.0388836140215396,-16.40804049971657,17.51321633384341,30.73526386878876,left
47714,0.9877962547324597,1.2385218047469853,-0.5981488485008478,-13.642201499096805,21.056185720490763,41.00030736107673,left
47814,0.6511665913306176,1.352009944500029,0.6752835261076688,-8.294796025248694,18.685731002997404,67.47261794242876,left
47914,0.2651085878930986,0.9649719901144505,0.2822352253913879,-26.704260390471067,24.872885183410133,57.66039550154511,left
48014,-0.3404056017439812,-0.12345248440653085,0.1303536420971155,-25.002535834235317,14.410736092053932,43.105354587801735,left
48114,-0.7266133158504963,-1.3558324253976344,-0.5642635300338268,-12.864811565880757,-17.719252405251428,20.69978815714679,left
48215,-1.2941621511653065,-0.9702926006153225,-0.91392744705379,34.87593969460934,-10.20422065772901,-9.274869260763932,
48331,-0.7784048048209399,0.20678660117536782,-1.2216834826707839,-17.201696528441005,-20.877697509552696,-50.430264604682264,
48431,-0.4243368441557511,0.11057868204712867,-1.3793471564978361,-3.3902935277998245,-11.311309798597097,-46.679083731376245,
48531,-0.4227120924981311,1.2092051093697547,0.17028934664428233,14.840197896496825,-5.594191307618074,-47.375469328583236,
48647,-0.1564744823087938,0.22888766608536243,0.49680911944210526,11.356397584855644,-33.89735458655952,-37.24219384576315,
48747,-0.15508401433108374,0.7036889518588781,0.8530044840574263,-5.8082063206371375,-18.521273708161836,-43.02852862001743,
48864,0.309700703411363,0.03515753035992384,1.3578764984458684,0.6582187135683704,11.010429720374281,-21.82968586097449,
48964,0.008891381659731268,-0.4441314222216606,-0.33596973818838594,-1.5387011742390644,16.250140186484217,-13.599699793212755,
49080,-0.10296513830348848,0.5269254407644272,-1.027138815692067,3.036901461134069,30.37075716335269,-22.579768697888827,
49181,0.20826704899147153,0.3032806437686085,0.12759294521212577,-4.37164464902009,-16.316669644094727,-18.677068615582535,
49281,0.7526641412995755,1.2127040574014185,0.36300036845505235,12.813926656564162,-24.20633556004505,36.99743060176115,
49381,0.6222651256907731,0.9617515667632222,-1.1284054795145988,-39.80648933190147,-10.763644740377966,11.098015797422294,
49481,0.8708535906113684,1.0630559322476387,0.37692952508628363,6.128436751665423,-6.52668629914865,-10.313503684449215,
49581,1.381872583322227,1.328072604073584,-1.4575316354185341,-18.535086058210894,-1.325463735568324,-18.32689164702515,
49681,-0.2073407279267907,-0.30073636611327526,0.3166922062665224,-1.353886714025686,14.103441612426828,7.775849351168526,
49781,0.02605667066797614,-1.0016614062167704,1.025943468427658,-6.188865142799819,11.702169935172016,2.774656988281664,
49881,0.12170257199928164,-0.4909596627615392,-0.24573592503368852,-6.590219865034462,-26.60794277034284,21.58579175854438,
49981,0.5365396933386102,0.531879263779521,-0.7194646131396293,18.223506488653253,2.298037209931477,6.949187713940475,
50081,-0.7861058807175606,1.0872750122249126,1.6777455811828375,5.765684977959223,-0.041141751187277587,10.174064518769757,
50181,-1.2507203381933272,0.29128815428838134,0.10842881053686142,-15.352342555937305,-4.623489945417739,9.610370714115897,
50281,-0.5061305630821734,-0.7216241292610764,-0.6388116982787847,-5.228582807291516,2.28996776831393,-4.462087025801637,
50381,0.3718720225010067,-0.3300662132330239,0.29102234295904633,-10.880340229894927,-4.011756432123417,-5.16821716852012,
50481,1.0214990562394262,0.39362420090809463,-0.07855506579875945,-7.352432264141096,-5.972162023455532,16.65274739465791,
50581,0.3211776080522686,0.4029188296064734,0.0679044924467802,-12.646190017153343,-6.952300145767885,36.91531123737009,
50681,-1.0738599425956605,-0.09551730651557445,-0.2073597248882055,-2.135850099221293,7.91863530954129,30.4215464500209,
50797,-0.9895736396685242,-0.6225766027927399,-0.22596154950559139,-3.5148046747179835,-2.6894260458368366,-3.040009837536659,
50898,-0.04191135200168937,-0.025817308954149482,-0.2697276259958744,1.2818134906866536,-0.7925927603697336,-18.38903441564122,
50998,0.19281313047837464,0.25951383662596345,0.20077391675710676,-3.13286177699134,-0.30525550807729745,-16.968583879615764,
51114,0.11990158699192106,0.07806786680370568,0.19043080191910267,2.122624718554033,3.6943767512999655,-5.408308990016646,
51214,-0.0653607627807185,0.027713790225237605,-0.29595044701099393,-1.9500896578078677,-1.8239495107726607,3.5743908181503516,
51314,-0.13541702643390743,-0.09131415573731064,0.29755320603251456,-7.4196575472733,-3.7451331676827997,0.7331728359941201,
51414,0.036676410490274425,0.056052580481022594,0.014248305583000182,-2.7650065713146708,-1.519238550199113,-0.9839564115018022,
51514,0.034960436885245146,-0.07993271082751452,-0.08444470835924148,-1.710747556294456,2.569245452295877,1.224705852149354,
51614,-0.19354495188426224,-0.27009258685074744,0.06418985583782195,-0.5235802103800807,2.378387128440684,-4.006291853900584,
51714,-0.01621481988299638,-0.07798376871682704,-0.18703648330569267,-0.29197308465829697,3.4530785476412857,-5.527848826436093,
51814,-0.3780816177308559,-0.2663750276323408,-0.07423895616531372,3.4373714604277836,0.4425699246359247,-10.825614192943846,
51914,-0.3155545805387199,-0.44962439361475404,-0.42034898009598254,2.358111711889501,-9.039552168384068,-17.485019605402304,
52014,0.044525224294513464,-0.37339404443651436,0.04339432056844234,11.099579910742227,-0.14225656535123393,-25.518179258078135,
52114,0.36394480969831344,0.2583119134902954,0.7262719550669193,8.96426726203125,-0.6568317582800346,-20.172977374011,
52214,1.055132080445811,0.3991416491553187,-0.18802140268981454,-5.5871656042830695,-4.6271338513399405,2.7476719780880012,
52314,0.7240050330482423,0.16548954514712094,-0.028169278907775878,-6.889158888872525,4.50058069130336,23.235726405398513,
52414,-0.30630587334129955,-0.333487273722887,-0.016290040543675423,-3.417726342270946,1.415087343423116,26.628375281244935,
52514,-0.42069764740318055,-0.29548882084861394,-0.03138298025727272,-5.632273454222303,-3.7754169458021667,14.107316891007164,
52614,-0.22131849120641126,-0.264885885053128,-0.13808335956633092,-0.6993463774904848,-0.10858319913454216,-3.7472539414200887,
52714,0.14883037903010846,0.03283624780550599,0.06994447384178638,0.7230387028956723,-3.3506878221238594,-1.103977562814324,
52814,0.2518263143306598,0.1320467097505927,0.06306523572206497,0.2689981425593723,-2.2108613711204885,5.68156223370723,
52914,-0.17574805044159292,-0.08044277924150228,-0.47893034840226173,-2.7182895714956645,-6.897393108803799,5.506589008870782,
53014,-0.18106150054931638,-0.2112304288417101,0.3621136487483978,1.1647784127018967,-1.5034864264257712,-0.4541859152995743,
53131,0.08321158636771142,-0.09778276722952722,-0.29022447057962414,-0.3242877501582586,-2.2501716711148507,1.5162423383092989,
53231,-0.01933567358357832,-0.0766064159490168,0.31441900063753125,8.782585083882555,6.252508845485997,0.3296446995408114,
53347,0.00322469766754657,-0.009729951375722884,-0.09009235885739326,2.666371596067105,1.3887319912935638,-2.3494839023073055,
53447,0.20681138855675235,-0.02769976169988513,-0.05936813476979732,-0.9158953906916234,0.00664011781201599,-1.868588212093279,
53548,-0.026636297186836598,-0.04052607165575027,0.1288239483118057,-1.8037144350262633,-0.7107232314919046,-0.5475907799119085,
53664,-0.06277679243581369,-0.14445786303430794,0.15940379549264908,-1.1713225877004152,0.29495913130563545,-1.3608058023766147,
53764,0.1419787230370566,-0.23090046721249818,-0.2227455100685358,-1.4930758307484966,0.38418119874242446,1.7205082167835217,
53864,0.13838332889359445,-0.17426862553879618,-0.2370446690559387,-3.860810532126605,-0.7534508672270945,0.7419637697036024,
53964,0.056801316489093,0.01674362953007221,0.2742804669946432,-0.0823953333820009,-0.9745670358271503,1.994212252959327,
54064,-0.01306897787163034,-0.3627865795738995,-0.03593056055903435,-1.5783577861686873,-4.535965340072257,3.092734842504338,
54180,0.07625257927635684,-0.13838964903652667,0.09051672174930572,3.5440596555936175,-0.5306179732678384,1.2323699647283428,
54281,0.036700302822515365,-0.017867811254411933,0.06317454131543636,0.36657966784916934,-1.5241229892293184,0.3047387615779037,
54381,0.0508497146083042,-0.1601055140212178,-0.2062631618231535,0.7436248396932379,0.4757147249243074,0.11734362377638431,
54481,-0.08119670288134366,-0.048467824440449475,0.09384265130162238,5.148154341606853,1.4469810184741962,-1.635605123418855,
54581,0.1835323111096397,0.16032997042685745,0.2190028164088726,0.9124694104926273,-0.9731725032977041,2.720615037464642,
54681,-0.03999486912218854,-0.10662073820158839,-0.18948796811103819,-0.3699879322450057,-0.5807386484493324,1.9376352347431727,
54797,-0.1443383831067942,-0.015650427465885876,-0.06459142237603664,0.7309667382530588,2.9539827511667025,-2.110874231860672,
54897,0.06045664239255711,-0.07946224377155303,-0.28749709144234653,-3.2378123293436403,0.8032629565963215,-0.8673841321941665,
54998,-0.860793530498445,-0.705090489219874,-0.36365327940583225,6.627379082327093,2.0479609325288615,-3.9238796451488565,
55114,0.3096456852884963,0.08504413555711507,0.32302900807261464,18.285946370498216,11.320878039850639,-13.761955205814639,
55214,0.4324856638198718,0.40157837478294967,0.24451252071857452,-1.551227634455162,4.981963886269396,-5.13068399837043,
55314,0.36374468401633203,0.1114152790017426,0.1926677671909332,-4.8048242108055845,2.223444073675533,8.907210423025901,
55414,-0.4841058878766373,-0.65243032765612,-0.9070312577992677,-5.216502763970702,-0.7184211748516264,7.523250172641237,
55514,-0.45924858306106175,-0.3417908455573022,0.5253858101069927,2.455294204721381,2.1733256396498604,-9.619837356305535,
55614,0.3545149007150903,0.2450496963351965,0.172617497330904,-3.0383210732643735,-0.5431340814784752,-7.341030117095406,
55714,0.22469571255454793,-0.0504480384722352,-0.12627718643844127,-2.1162845954569685,-2.164823761680487,-1.950411317029093,
55814,0.07486230766146909,0.10796323885172605,0.1205243220001459,-1.3026253972527997,3.6124682689995264,-3.175262524141721,
55914,-0.18517142008617518,-0.15444310434535144,0.16451660846173763,-3.8397859292008363,-2.622008450190814,2.700713787213929,
56014,0.2581785511679016,-0.07928250329047441,-0.7119564294666051,-4.5584405044230065,-3.9222976025823524,2.2340639506178452,
56114,-0.10806328342640772,-0.22571634257286785,0.1089087030082941,-0.717195155895609,-1.9785491350886069,-6.354129680617916,
56214,-0.019896778065059333,-0.00971460767611861,0.11768296109437942,-0.11366944891038025,-3.9552182606081674,-0.6065084719401145,
56314,0.38327589843831955,0.08821136741638183,0.014287468549609184,-1.2854707368220781,1.9496456955118169,-2.7304289520848926,
56414,0.11400640973979606,-0.14852993477880955,-0.12909107481539248,-2.5087577238930674,3.482258609879461,0.8411958528950154,
56514,-0.5673442891860381,-0.33146146698370577,-0.10004618211686611,0.6793587893797945,-0.01572581687286678,0.20930449034864262,
56614,-0.10603826213851571,-0.07105521156266331,0.2740864057272672,4.157047789261106,1.4935845731199568,-4.975628032040563,
56730,0.12004115985939279,0.18980097958296535,-0.023030746975541114,3.473454922926138,2.813628553581876,-3.113050813303718,
56831,-0.09304775633057578,-0.07603577645421028,0.005113982012867928,-1.380316771349285,-2.0041380119272363,0.10340666279561296,
56931,-0.1098238268255256,-0.28227175800949333,-0.0576654225051403,-0.5907165409705162,-4.504464080733335,-1.5180306739330787,
57031,-0.046309422563854605,-0.26062588952109217,-0.16886954297423362,3.2260697400565075,-3.7613732230949743,-4.748114003900614,
57131,-0.8825639021493494,-0.7840889148719609,-0.9179068720787763,0.044762004911435574,9.716229254740986,-13.91512561304676,
57231,-0.8543665661908686,-1.419937525561452,-1.6753379355192184,33.194330045479276,-5.860638694687563,-21.266270386529307,
57348,0.34085418576169757,0.5897308565065265,-1.0048030652433633,59.981403064542164,14.753625248766912,-30.989285434210704,
57464,0.26067776583880187,0.9331804290562867,0.9811538941085338,19.23592493875673,-22.64632718380331,-24.774738780131635,
57581,-0.12141330672912298,0.8490610071286558,1.1776304059326648,4.740590977416669,-27.427102725428103,-4.040505125226824,
57681,0.4653010149678215,0.6293894976779818,0.12598901714682578,-6.953205145832912,-14.1178430662918,6.917907155089109,
57781,-0.06498028469630517,-0.10774053601175546,-0.15476619881987572,-6.935397988893042,0.7651830511479137,4.980391662099823,
57881,0.24350769105758516,-0.16710311782360077,-0.06665770725607871,-4.8513096245230445,-1.2062348861995238,-6.564625438667131,
57981,0.03665041753249243,-0.21129794111996889,0.20592004747390746,2.1634248535611036,-4.913114298775198,-8.350962378341002,
58081,0.5051282541718334,0.1941387165263295,-1.056813238465786,-21.244234488719556,-5.363625038692776,16.201611692431275,
58198,-0.02521495914682746,0.18058716103583572,-0.09193184924423695,-5.420579851747397,7.986352366293734,25.271431844122255,
58298,0.1911250677935779,-0.09795739314407109,0.3500350884199142,27.64525896751831,14.8795619842309,-1.1548923542085379,
58414,-0.04975939862094819,-0.23156039242595433,0.025949849292635916,12.069921834237489,-1.1450447155292605,-11.723854078239514,
58514,-0.12123995945621281,-0.008591887256503105,0.2528057172894478,15.872329980092253,6.998634014663136,-3.5898163735040023,
58614,-0.22087836448978632,-0.10848930855244397,-0.05404957009553909,-11.475759409469848,-2.4075112685050297,7.406873140694329,
58714,0.07529858475346118,-0.019716800121963023,-0.18625263945162296,7.830799076814925,4.530485393923791,9.857521963006455,
58814,0.10794194033537059,0.2270385310873389,0.1084212117522955,-0.1526600907155005,10.796206813472354,8.710830531556987,
58931,-0.06820267167575657,0.14967822803109884,0.07850479691624641,0.46332823022534214,-1.9083036276827876,1.3565659624493291,
59031,-0.16520616162847726,0.049309682092070574,-0.19618366635739803,-5.998680232908106,3.263293630702842,1.0925643167112329,
59131,-0.1283847714432515,0.01694061340689659,-0.48839141970872874,4.270340137024107,29.411911302004203,3.9603959708858603,
59248,-0.4041930873259902,0.11633768396526574,-0.20232056167721746,0.7250775143629211,17.868246151806087,-12.065888607532596,right
59364,-0.7266771748669445,-0.5630222978010774,-0.002492401337623596,-7.2380812370567424,-2.4954868797791443,-13.36448515367044,right
59481,-0.7607308356381952,-0.9511796116054058,-0.04301555038392543,-9.87206855839129,2.7447420403774774,-6.735997019376867,right
59597,-1.4175721116043627,-0.6418409829720855,0.27107611799538134,2.6555858735940086,0.5779700739579501,-20.790421352338274,right
59697,-1.5022887687727808,-0.04775368482172489,0.23583178613483904,9.844916848893197,-7.034583434699028,-25.553151534175893,right
59797,-1.7476185972236096,-0.32522914846539497,-0.12966741339862345,-2.2280809183483252,-2.2019774294444177,-11.74083990493169,right
59897,-1.7523768976666032,0.014779051458835601,-0.7816717707276344,-14.000773623917782,-10.361648834134987,-17.391545051516093,right
59998,-0.547825386256352,0.32426848673969505,-0.6237865631043911,-11.605363956518133,-17.142574410985375,-37.840422794407885,right
60098,0.1644509958796203,0.08516162445694207,-0.1956266169965267,-2.8893971227052964,-9.893302762747213,-33.13835664523103,right
60198,0.2532615712981671,1.0126748215317725,-0.5019143336266279,-9.811689686128377,-7.382881247461013,-52.34061045892689,right
61257,0.15244743701610713,0.157924955111742,-0.8623807996898889,-26.168122984023626,-9.634161970542344,-9.89275464006632,
61363,-0.11407437867578119,0.9257529094040393,0.0548942042261362,-17.198380471598963,0.12225267549998553,-8.570038988421867,
61464,0.7018290762711316,2.7283775006651876,-0.4252823448449373,-5.155443007224903,53.78631220431388,-2.3418456163811157,
61564,0.6307037951469421,1.3789604952678083,2.692448109149933,-15.517576784790961,59.204790065344206,54.03814469410683,
61664,-0.8585410023313015,-2.6457325352042913,-0.07260814009308815,-72.33772753728299,-17.637889484310946,39.23625391357003,
61780,-0.21608831720165908,-2.1450153024077414,-1.8474819701194762,3.5255447203010055,-0.08976544100177523,15.145637125990625,
61881,-0.04602539972439408,-0.45489217794984577,-0.41927521338462825,19.00124988415885,-13.168274309383484,16.29470717081855,
61981,-0.34176147333234547,0.17489698657020925,0.3816986391842365,15.550578551313171,-7.432442807625918,4.73522799825774,
62081,-0.07460019069314003,0.9059086835101247,0.5306330631107091,9.376011555767127,-5.684732722142586,11.889587764676227,
62181,0.46623551933895796,1.1516904935121535,-1.0678291379988192,-6.727549782920854,2.6620786087303405,47.083536798173135,
62281,-1.0220993602201343,-0.4311711106225848,-0.991205917045474,26.098217705415838,26.794874802642333,70.60126805402314,
62398,-1.6117654809273778,-0.8859516448915005,-0.39153614258766173,17.9242741935677,-19.646096581436215,20.910827342121845,
62498,0.09763064540773629,-0.1496962020792067,-0.6134633220106362,31.761841301041674,-21.289086633451735,4.0809586281335175,
62613,-0.5816874699782579,0.46176118693649765,1.649465243116021,25.747880227412956,17.72951988712125,-10.384015996119487,
62714,0.4594407811649143,1.0905740537703037,2.224946332734823,-17.035963695777937,-22.30116015900213,-27.814796215549073,
62814,1.2588194734968243,1.6106857228666542,1.2287146964818239,-52.094675837482235,-49.426322419338774,-39.98563153345256,
62914,0.8347088027797639,1.325125006314367,-0.18548925386369228,-28.861104356766866,-25.520038777079673,5.728839095594767,
63014,0.36566739570721984,0.704555359429866,-0.43604222379028795,-29.86127286259393,-19.798679592399715,18.66508675623104,
63114,1.522204890859127,1.5211185569271444,-3.875437411767244,-7.9926284563673295,-18.349318573164886,119.38454865357271,
63214,-3.5491686911210416,-2.225013552752137,-1.0285872609347104,44.96959325005419,38.89597388911999,61.02308204504998,
63314,-2.691998611816764,-1.7585051712885498,3.1449995691925285,2.409730012768226,61.26730228901296,-86.11522996119587,
63414,0.23868063622731714,0.8684688874319195,2.0156085857719184,-59.41742751458504,-16.335278494488424,-155.47591026570208,
63514,3.1323829564645886,2.851681516511738,-2.1815146027654406,-22.68623256402911,-11.531787451231462,-60.36675550732512,
63614,0.2609151913238689,0.509993668251112,-0.9939882412403821,-9.644520806192315,14.966105603656839,11.277806013170892,
63714,-0.4553592474723234,-0.5604885415397584,-0.5255231727510691,-0.4738798586368069,18.339404553584615,14.019152809200639,
63814,-0.7253206456914544,-0.7675889579046518,-0.4650660737007856,7.310621261136863,-13.39401803786793,18.50275535777464,
63914,0.08612732768394052,0.09613554801177233,-0.43284722714126106,-0.9691605142122621,-1.7526096789957584,4.736035668127093,
64014,-0.1052891790705733,0.027151370569504795,-0.07634615757763386,3.936636730971148,-11.121975247257051,5.930425298758522,
64114,-0.03679598174933344,0.41426078275609757,-0.042027123868465424,9.834480319841417,5.773211419537754,0.4896895587704179,
64214,-0.13938775669578463,-0.07752543049007654,0.07397299870550632,-2.5078905033118875,-14.512833759767283,8.72285166449621,
64330,-0.2761381323589943,-0.24806217602416872,-0.5888257243603467,7.865321414201109,-10.0295804046146,7.227491882522284,
64431,-0.2880253896327689,0.20579905144274233,0.38922202042639253,22.08725741721755,16.66437579171986,-0.07854170596772533,
64531,-0.5295039494829252,0.14891301581226288,0.6168757608026266,-5.278940938268373,10.226966895212446,-4.369892705497982,
64631,-0.45830852573197334,-0.09097995534688234,-0.029710078608989714,-5.753731720024877,1.2595976600809524,-3.870526903107771,
64731,-0.11630798294674605,-0.04557889806590974,-0.257771815264225,1.0432816203635347,-4.543510991557828,-9.497122762582501,
64831,0.06681118535131682,0.018297215647622943,0.2668932793527841,1.4731678570303193,-3.925298616948927,-8.135319645865358,
64931,0.02730376638593152,0.052950888138636944,-0.03604220423996448,3.854175430234761,-4.976071140562967,-5.189286594562317,
65031,-0.05863849618784152,0.13729666616804898,-0.23551322170495986,2.4925569420686204,5.546661728731247,0.10004039339100161,
65131,0.03913325189074967,0.012591332156211136,0.2283919915229082,-3.609914632023588,-0.34148992842847953,-5.735242397941653,
65231,0.22795787442196158,0.12892273251116276,-0.1009048447728157,5.640172567997422,4.277600201225008,-0.8422780109916392,
65331,-0.004278791564051062,0.25444120953679084,-0.12342121248543261,11.457332412862801,9.748971474074734,-0.35021087937939577,
65431,-0.06333212476363405,0.26132994613721966,0.14754209278523922,2.777388210176023,5.891258859623553,-3.994652357781236,
65531,-0.27254166050329803,0.4639993212521076,-0.15170622672736644,9.976367254564677,13.156208780214657,2.122345321128297,
65631,-0.3683548812255263,0.23331147387698292,-0.18117782040536404,-5.237234522535806,1.6726825918848576,-3.180724967930439,backward
65748,0.03996887616440654,0.7296414315000176,-0.5041068752348423,-1.9249626725118603,-25.081567953121535,-8.592202098504913,backward
65864,-0.5720589331503957,0.4027458111271262,0.3287345262378454,-0.890966107355576,-14.583353755400372,2.425391423091654,backward
65964,0.16700510080922393,0.8384158406041562,-0.09173895702064037,20.736505546577487,-52.05718492912804,10.221111715546451,backward
66064,-0.6159435214538127,0.575905598641187,-0.040404491102695464,-4.905978031753004,8.198885655149729,9.570474725400206,backward
66164,-0.6255326030541211,0.9095239513978362,-0.13295184189677237,-11.829935453786275,12.529960688047236,1.7266340426953768,backward
66264,-0.32830409893132745,0.6403798243783414,0.6518687482506036,4.825813382125033,11.864654159111096,8.582178795897919,backward
66364,0.3319813261393457,1.0790687632851301,-0.23049100962877273,2.65557242665908,-6.476764019618203,17.907079192332194,backward
66464,0.19016858905265108,1.4085731048516927,-0.8008908504605293,-9.026866799548062,7.71959164429607,33.83802756342879,backward
69621,0.05634714298080653,-0.42292993649989363,-0.2370756487160921,10.231148678531785,-6.885713058436254,-6.628020693222251,
69731,0.5804517907034605,-0.7162177401728927,1.1377619214028118,-8.099983662194298,-0.09502340600221568,-16.201779032065943,
69831,0.14028753681341186,-0.7632363156531006,-0.5333972671270371,6.134747419571692,-22.242552013281543,-12.098195402306757,
69948,0.21854561069328338,-0.2751777080953121,0.1623176371127367,22.083244681080167,-15.027618287321975,-10.224614748817022,
70064,0.03323454010782297,0.0024269348859786988,0.2810562447398901,7.545103362890693,-0.053368910379511116,7.02659296714376,
70164,-0.2737769561856054,-0.1381292445346713,-0.045049686560034746,-8.222604340816245,-14.583188123313,13.575603739594596,
70264,0.07040713205062783,0.073455112311244,0.41054420991837975,10.935966144269155,8.017525349665673,8.947192642879862,
70364,-0.24510157265290616,0.27812472133263944,0.25767303106486794,3.509251730922763,6.3481063075436115,2.3461712605598493,
70464,-0.2847924538598396,-0.27262700069919227,-0.11086743586063384,-15.675676881056539,-3.6574390882685366,-0.8858944784534301,
70564,-0.20089721434321253,-0.032900691343843935,0.117553197234869,-8.710181663585836,-0.5548870761319218,0.8939515403531063,
70664,-0.010206656376225873,0.11984890695661306,0.11809972520172596,6.5616146059036256,3.3280030563429546,1.5590346473981924,
70764,0.2255228292947635,-0.03906213658303022,0.05113339038789272,0.19534311677767377,6.789594794454427,2.0155982155808716,
70864,0.2518647831775248,-0.404877854719758,0.061006549626588816,-5.906548238080627,-0.1963264772551705,7.812884344395628,
70981,-0.09824857637668027,-0.6889640417400748,0.23591478824317455,10.454318279472782,37.93959714115647,14.380394684213444,
71084,-0.471002624142915,-0.8167924762085079,0.13559212727248668,5.947691590093491,21.17651487064617,10.85245598260835,forward
71198,-0.08898293631076812,-1.4879387563809752,0.725265408372879,-11.757538009905078,1.5412640960034059,12.059536531604484,forward
71314,-0.5708166049391031,-2.0799625461302695,0.8249971177130937,-7.3157447567880185,10.175270900931912,12.229215506060527,forward
71430,-0.3364475117679685,-2.1690480660326776,-0.10988660812973976,4.226581249445951,18.19926785483617,3.3767633499408523,forward
71530,0.24587504124343393,-1.1768179935712366,-1.2101099492549896,0.13207259321618625,12.149467071085104,16.43724809615484,forward
71631,0.05883527000211179,0.3632736324384808,-1.4885130491375922,23.28500280516557,-10.114568448457069,13.620408926776234,forward
71731,1.1048540696658193,1.2247602597676217,0.5319534980595112,22.58618907570864,7.902297497046619,18.794076586254022,forward
71831,1.3157323240689933,1.0930382519267499,0.3281938434898853,17.53945109044543,8.074218481097716,23.717966789105386,forward
71931,0.9983243707485496,0.5119650413893163,2.1217653597235677,-4.725632863134341,-12.825683119673046,26.28052569964723,forward
72031,1.112936984486878,-0.2642345815375447,0.9555085807204245,4.002651363072967,-13.367770474661217,26.016405699537422,forward
72131,0.3450393259592354,-1.2395685373209415,0.3510106554538011,-7.008117732325699,-10.44525120334959,11.076414470398483,forward
72231,0.35051571154370903,-0.7934269443206489,-1.549513753545284,-5.574326983077561,-16.73275623059544,11.129845332728198,forward
72331,-0.1271523983703926,0.43028015313223,-2.508686117470264,3.467490673676836,0.5349815036521245,0.479922708422417,forward
72431,-0.43724977294914424,0.9965255046330391,0.4676479068875313,4.654750867475241,-1.2005064919199986,-0.11875030924007637,forward
72531,-0.19310867935884743,0.09361644133031367,1.355544256106019,3.040745790419728,10.729988129469081,7.557047656201753,forward
72647,-0.9968275563195347,-0.3870195419460535,1.1307172635883092,-1.1244713319755357,7.11212742611983,-1.6889733401072786,forward
72747,-0.9433715682029724,-1.3048615320950745,0.6464777028620242,-1.2133443660735665,2.5259732156960846,-1.2556929263098207,forward
72847,-0.30271632441673424,-0.798660899451375,-1.0709165826201439,18.9101078398742,0.44865714397071343,-4.557820664755829,forward
72948,0.8575522835548967,-0.25800503949820996,-1.4996189650416374,-1.971228239515411,14.58569138764381,16.88143920354286,forward
73048,1.0597099828206002,0.5116759953148663,-1.205646540105343,-5.13568924637158,9.566979376092453,26.852907504925348,forward
73148,0.48688901578914373,0.508249381867051,1.2945821301430462,-2.9395078727681527,19.76904510913832,11.948742325530416,forward
73248,0.3706212917875498,0.4512652196243405,2.773112714448571,-9.97590877811664,3.8595593268480233,6.3432773638004125,forward
73364,0.5933411559581756,-0.35073373820856213,0.35279461626112457,-4.7830935370743655,-15.595632186625867,3.356360721116378,forward
73464,0.5523913424650206,-0.7596084074795245,-0.23166765219271182,-11.103893175203089,-8.274106528479079,-4.260285671679025,forward
73564,-0.11474611305803992,0.25598858510926364,-2.898375755408406,-25.87242189673897,-35.80961630886633,-15.745978310636188,forward
73664,-0.8543971805248409,1.0155351793989538,-0.29822482168376446,17.683224864926906,-2.342450088122662,-5.745473167544686,forward
73764,-0.4843155485719442,0.6286196823492646,0.6803893248140811,5.257214960292209,10.981782199447956,-23.580261637701465,forward
73864,-0.45184813407883045,-0.22992533857002853,0.9541980826437473,-1.7045046566713586,0.7207000567960306,-5.1321507814946905,
73964,-0.021202545167692006,-0.28049744181334973,0.4941694185882807,-8.428521737687435,18.647613424786854,-2.329694709847663,
74064,0.023700755191594362,-0.8782803796112537,0.004581482571363449,-9.361661328320931,19.22576673991363,9.03596631906981,
74164,-0.3836626327335834,0.18166092774718998,-1.3691647851794957,-31.500193829411412,2.578198763080706,4.251589133318307,right
74264,-0.3397783366911113,0.907424056509137,-2.822168714040518,-22.112713532254187,-7.077639239679496,-27.673764762019356,right
74364,-0.5279271651528775,1.496808876056969,-0.961546691840887,-15.001641370361124,-25.415692269582095,-38.64386136157107,right
74480,-0.6868982683166861,1.2151618258170782,0.6218202314674854,11.763363307493453,-11.325543059053759,-32.94034263100318,right
74580,-0.8030459826678037,0.3572895895928144,0.8718354412555694,-4.460115235565619,-15.564215023991101,-60.9056847535958,right
74681,-0.4560197206750512,-0.21830182853266594,1.0946394035130738,9.73830357236482,-28.009803238994817,-61.90378712719894,right
74781,0.09025281011611223,-0.13287789987772702,0.03216039437055587,-1.5925724770485417,-25.075077565862728,-69.27145754337833,right
74881,-0.03714534317627549,0.7346754801444709,-2.443487961372733,0.5348672047052326,-26.813560492664198,-62.48426441419081,right
74981,-0.06750577545277774,0.9406943118177353,-0.6595885288476944,-6.949007994587939,-7.4800534950091375,-61.196459566941584,right
75082,0.09392857601940631,-0.3912131942436099,0.965280617672205,-37.414789310994784,-69.97735759409915,-39.525570481528014,
75198,-0.5061647576127201,-0.6327464068904519,1.1657727948784828,6.964099724445905,-7.9901695882661254,-13.368964050218677,
75314,-0.6530332619853317,-1.144548512803018,1.3598176956415176,15.738671715771567,-7.7839132432573725,-2.343573440797717,
75414,-1.071226817613095,-1.06793055254668,-0.24754385123848913,16.795701546438984,6.674726807427268,15.091564225878926,
75514,-0.6253549083996564,-0.7419970552042127,-1.8472978457242248,7.154252190939061,9.293782908349344,8.370355846715606,
75614,0.08306457911245524,0.9378514896072446,-1.4997142421096563,-27.678750800113466,-10.209642974156354,12.053824785911061,forward
75714,0.47152036440670486,0.9177864605695009,0.5833773958265781,-3.1598070867104515,-11.528463710426605,22.887361144518476,forward
75814,-0.012548515927791595,0.051001726832240815,1.845714375925064,11.144771857385615,-8.614461685009985,25.06357723484772,forward
75914,0.10698964457921684,-0.06906783713772892,2.0053665932208298,-1.7562279717085727,11.621537844472723,17.450928423707477,forward
76014,-0.07288228085935115,-0.6073699735715985,0.5743243207991123,-0.6677461871303034,6.944317362175433,7.951390335479732,forward
76114,0.24622798286695033,-0.8684634806044399,-1.6241320644170045,8.25183498914296,-15.384534945042867,7.4624461211024915,forward
76214,-0.32762240027748046,-0.06365706413537263,-1.6749293547183275,-5.557783838020967,-13.796365698853164,-4.406147776499233,forward
76314,-0.27384054120741785,0.8406457916133105,-1.0349357531785965,6.7347983211775295,-11.927099163597937,-20.45851855490526,forward
76414,-0.311457812744379,0.2170471522964537,0.9804133048743009,-2.2867631289327246,8.449545059952735,-20.883195811834558,forward
76514,-0.3978623864671215,0.20837124001830815,1.5102525872588157,10.73272618155261,8.56124426609183,0.14020657478530452,forward
76614,-0.56921369978711,-0.24757702285572886,1.613300873801112,-4.552277112470716,5.453837750363482,-11.915152308965938,forward
76714,-0.2874998679213226,-1.290892774105817,-1.192281447097659,6.917166506450986,-19.448342114396837,-15.583266129133559,forward
76814,0.1475635739646852,-0.6309450565569102,-1.699424913549423,3.6183554651772543,2.9627930548657844,-3.24765484538104,forward
76914,0.32292079845778643,0.7039397117495536,-1.213865502396226,7.554263500341326,9.41731712477278,10.8180395131543,forward
77014,-0.010192746581882238,1.1393680414251983,0.7794821517288685,0.6580608721655196,-0.5443663436542807,6.721677954668759,forward
77114,-0.08851670703850686,0.3470665940031409,2.9049937122434377,-9.915677608694528,18.84871980716142,-3.338370216285976,forward
77230,-0.3803358263984322,-0.25206395901143547,1.233229543557763,22.202692736832642,-1.9717761487528929,29.333688560534632,forward
77331,0.9234943168222903,-0.8933946543738246,-0.5695721578359604,4.117448486887487,11.367607632830929,19.341854342594463,forward
77431,1.0491123817648738,0.39703152513355017,-1.6800994508326053,7.503896831628007,-19.793439129759022,19.3857144023497,forward
77531,0.33319855644199997,0.9392717316687107,-1.0821645373433828,-2.5850180666367293,7.738949254177532,1.8128901538459405,forward
77631,0.02372654721997678,0.505903403262794,-0.5023702607005834,-0.4562432429827762,-13.40394401027925,-10.205106874773819,forward
77731,-0.4784031096577644,0.0018989654891192911,0.6700777741581201,-12.572050021260146,-2.628909502573466,-27.53462868598432,forward
77847,-0.8054021173398941,-0.9059621672630309,1.128000405845046,0.5328518186524028,-1.8257294153816837,-20.61542678316067,forward
77948,-0.07895122550949454,-1.8391272526197133,-1.3267939624398946,27.243693363193042,-23.522290407120984,-2.2789583571455156,forward
78048,0.6926692529335617,-0.26103695454001424,-2.205917807137966,38.33712439613497,-11.602924725210793,-1.6155903212731904,forward
78148,1.2142209647703914,0.2861573672711849,-0.3039052054077387,-27.751480361943056,-6.924804365490353,29.610222429460936,forward
78248,0.198200705268234,0.9306653774954378,-1.4758932215392588,-49.83600058085072,-16.108632327259894,10.944544008093045,forward
78348,-0.299911441330146,0.6533446660220623,2.4465473489433527,8.25750660747501,6.124911947166874,5.268297369107378,forward
78448,-0.614450579482317,0.006714695207774638,1.731870554602146,8.221531147342906,-11.671252230120308,1.3511437527436911,forward
78548,0.4241696343626827,-0.2753079103462398,0.16648352462053298,30.190675810790715,-7.777572266386662,19.176640604308314,forward
78649,0.9575643442064523,-0.2821843719869852,-1.7949018880546093,-2.040758924935906,-10.708820519457566,15.56785039217684,forward
78765,-0.1919223191184923,0.360150385851413,-2.960553686901927,0.672709173335964,-8.123075678004465,13.130328339675833,forward
78881,0.06370330529673957,1.1491880091719329,-0.033086277043819425,-1.4760134845932757,3.4290770494544494,-4.622736490174922,forward
78981,-0.11999470863547175,0.30152737036049365,1.393165253970027,3.522163990105261,1.7564108927122821,-7.593806880541115,forward
79081,-0.5101129107166081,-0.13656053391322492,1.8642326139122247,7.080101522875286,-0.39008165509209564,-9.792439651726342,forward
79198,-0.9886089593548327,-0.7712889084011316,0.2330973927348852,-17.341611246041424,34.76935117751671,24.251180874588062,forward
79298,0.013204459085874259,-0.9046205433957278,-2.37797533249855,19.23458451413212,-21.6446201778657,-15.647442586574998,forward
79414,1.1979366963803768,1.462838948046416,-1.9477888489991426,21.062051145440513,-39.331050109060634,-17.936921996363274,forward
79516,0.4569596318736672,0.978941771017015,-0.22005437128841876,-26.06242751416497,4.016771925408323,7.9470702408296985,forward
79631,0.47646403135396537,0.5585163646839558,1.796621551454067,-28.479797093519856,11.31689860088546,13.563707257607726,forward
79731,0.12343263806174508,0.39627456928640603,1.8171546363949775,-1.5965993004510874,15.302956873143529,-4.748004293987071,forward
79831,0.10232113217837177,0.0581798017680645,-0.6992799032449721,47.96896837122774,-13.814387152978242,2.347977205265083,
79931,-0.17118457845095544,-0.5925879995033144,-1.8411667956233024,14.584890547963626,3.6528871940735463,-9.42048974764225,
80031,-0.028675401799008248,0.30536183395683764,-0.9375503147035836,18.259102019512774,-10.576341316542353,-26.089348704778576,
80147,-0.11107110520657151,1.0332049838632344,-0.3693763332277536,55.20903036314378,38.57017728080497,-6.939692043446865,
80247,0.679198799855262,1.2387895157724618,0.8118447906732559,5.583712516770805,14.118824052211343,6.373307571146843,left
80348,0.6100545364804566,0.9579711714416742,1.0360919374763966,-0.688126724561681,7.36538230280744,28.3114875719924,left
80464,0.4859073478080332,-0.15974807888567447,0.7923533237397671,-9.27012996325359,49.37255858528702,50.60054122069069,left
80566,0.6987311833210289,-0.4898138537272811,0.30827976723015305,-7.4857678020235,37.3355898524739,66.9051863167516,left
80680,1.7850819203078745,0.44180064118653534,-2.73452783998847,-7.075011324396335,-8.872734189416615,89.24969256377392,left
80781,1.345991414862871,1.6890999188899993,1.1408663171589375,-24.700419491772728,22.93040158157331,89.3167786818018,left
80881,1.8786849176347256,1.0975845170542597,0.596326309248805,-23.273526379812655,16.841556021431867,90.65999002359816,left
80981,1.7057488558739422,0.6379752474546432,0.9769786542505026,-9.773903372092574,32.849098133880986,89.53055677263401,left
81081,1.175760739603266,-0.15070698655694723,0.9267126943469047,2.5514195123357903,16.704416068181764,78.53094009548951,left
81183,1.2311954073816538,-1.008019104680419,0.13748890080451964,7.824425656545657,-0.5153140272979256,68.85976789115581,left
81298,0.47411396109648046,-0.3993795495644212,-0.9215157102257012,4.494913768726365,-8.358258727921868,51.561145855750446,left
81398,0.034808630157285365,0.8172028105750679,-0.4166676612347364,-7.792328890088474,28.419657277877892,45.24377070371684,left
81531,-0.2029367025478743,0.8136123848676681,1.2007535073667763,-4.921195693223792,-7.722924776611037,35.90705920266032,
81631,-0.8207577996429055,0.31901363495141266,0.9567682253926992,-50.72545513532646,-26.806971067662428,23.718152911760267,
81731,-1.036297981442511,0.04148249559774995,0.12057517540454864,-3.3983898632872283,21.10407046921443,6.817762067704736,
81831,-1.4112971229881048,-0.8039902777805924,0.7350695940285921,1.9441091868592868,7.919835715287919,6.074017219453347,
81931,-0.6346503408156335,-0.5971848257742822,-0.05658581057488918,-4.212032519627001,38.63521092698725,2.1924446197971954,
82047,0.07674553215876222,-0.07249123571515083,-2.945415154480934,-39.9544414746077,-10.250696679936361,0.5425712312021839,
82147,0.9553434532865881,0.23807430436462163,0.5498182405740022,-43.2342129366832,-17.89914422006393,22.55474117722261,forward
82248,1.0957815592855213,-0.00039718262404203413,1.206052782818675,-7.965545902534583,-6.48120620389965,-0.0741024031723344,forward
82364,0.8397307225950061,-0.29260157497450706,1.9438854118198154,4.457447192921083,-18.00999306765136,15.976456213989099,forward
82464,0.5187917456042022,-1.2291557182475923,0.9360112685680388,-6.039651549531251,1.0746135123553815,-0.6815149947234029,forward
82564,0.4276864833772182,-1.2479274926044046,-1.445181856933236,-8.62650245474307,0.3403557435002872,-1.9803200750743442,forward
82664,-0.653593745412305,0.23730580421015618,-2.638711258265376,-14.685282375931765,-9.007292331160452,-25.348112670386698,forward
82764,-0.7358312991160899,0.7537023983061313,-0.05333060817122459,16.45114411602123,14.348132285668889,-22.825474507996283,forward
82880,-0.2691155585121363,0.3147673756837845,1.1570353616714477,7.243195341197789,13.552680770966386,-28.59483967725767,forward
82981,-0.5812284741643816,-0.2669603532396257,1.7012562206298112,-1.2980866298276206,-7.773217167017132,-19.64738919473664,forward
83081,-0.3024281551251188,-0.02049246066957712,1.024080597165227,21.98917760828346,17.231016823000576,-4.969663996234672,forward
83181,-0.25406667713597414,-1.0718420269019902,0.1454383985042572,4.0250518222296705,4.567075571081196,-8.325194635923483,forward
83281,0.2589149939499795,-0.1240503041692078,-2.8106115472376345,-13.064469948151277,-28.29012103272131,-1.7397872794895288,forward
83381,0.8217864851035177,0.567704025876522,-0.25941607533991334,-0.5622216854443105,9.366308418277479,24.47305444713405,forward
83481,0.6757339732889086,0.719512690065056,-0.7870622315943241,-6.813846234876203,0.40294991825138476,16.39860630092549,forward
83581,-0.046784675392787904,0.412553357783705,1.9375334124445913,-6.941613461037754,4.041737974372012,13.671483373842296,forward
83681,-0.15460421319119633,0.16918898418694733,1.9490829804629086,10.058018750997594,-6.730184955280009,10.815004347841876,forward
83781,0.14612621637163684,-0.46944984174296256,1.0520604909807443,-1.4572789160301656,-7.860340498748877,4.033569921898323,forward
83881,0.6527039569657296,-0.7031877243384719,-0.9671779757261275,4.241110342471037,-1.1315480482859037,4.220222770215492,forward
83981,0.060300264520756895,-0.13737068125233054,-2.130590471214056,-19.87836399435167,-10.39694127535009,7.018547858075132,forward
84081,-0.07379939570426941,0.5812117422252893,-1.4658131415516138,16.826058322205107,13.481446166791386,2.925454118220617,forward
84181,-0.7100288224048912,0.35089740433767436,0.3439005311876535,-18.115394839375707,-5.9551164326081185,-24.657387592454356,forward
84281,-0.49560244706608353,-0.30955563238486644,1.2856821998506784,15.334806045243297,5.52426895353736,-4.705740790950325,forward
84381,-0.09684851858671754,-0.19943609228208659,1.669458229830861,0.4795387237250154,5.489738078414715,-10.885439819883986,forward
84481,-0.393327665646933,-0.6775218065537512,0.0927659619808197,0.739097117964607,10.055146656451605,-9.596574585766119,forward
84597,0.3240751195920631,-0.6778304341115057,-1.8328566479176283,6.719067114858521,-6.971233003260338,8.186495691995326,forward
84698,0.5400943536128848,0.015605273149907587,-1.6689765837937593,13.836354748896296,3.225473592608012,8.003134141084455,forward
84798,0.4828998000225052,0.1711450866907835,-0.41243513823151584,3.962593157364489,-6.8041063851197645,16.327813097725603,forward
84898,0.2345946455553174,0.27511399520933627,1.8393436718493699,5.205030607486019,8.193496635894588,10.535513007004955,forward
84998,0.3755076025243848,0.3813461724847555,2.5363696586877107,2.8246524789022764,3.774457731110603,10.036933957029765,forward
85098,0.45730537657141684,-0.3186129451960325,0.7004898635566235,19.875032569583997,2.7223844833464987,11.844711714281951,forward
85198,0.35922947161421176,-0.626564649515599,-1.415179517379403,-1.568905124522507,-8.921690424066329,3.148003879494435,forward
85314,-0.4983871824137866,-0.06533814909011125,-2.216654305207729,0.33222907236801497,-1.5257455860440197,-9.674734147985866,forward
85414,0.5367229774836451,1.0686525832109153,-1.6664865205436945,-9.896076673323885,3.7787330026442083,-16.749678024264146,forward
85514,-0.0961687744279392,0.061050534898787735,1.0344190358281136,-17.68974257294239,-12.627610195063616,-9.237533739213351,forward
85614,-0.333119207595475,-0.48697716899663207,1.6264993780702353,-2.436979052461992,3.2929106116044866,4.503799844836551,forward
85714,-0.38459494514763354,-0.8656580677948892,0.7407189980924129,8.13980195750818,14.488043588174722,11.259595021296347,forward
85814,-0.20641941183079032,-0.8497460667833685,-0.6247077696025372,0.903240437541765,-7.1848791860642205,0.4927725354070324,forward
85914,1.0123364564228803,-0.18235329392552374,-2.1086048493772744,2.8482537706924322,-2.245447101199906,16.053319747813838,forward
86014,0.2884630869302898,0.24094854462668297,-1.4596218856960534,14.020061224360251,-13.432536889692216,24.416450961934864,forward
86114,-0.07625230528172106,0.7323093355350196,0.48832303064763544,-12.96767848364938,8.796462320728729,1.8260839448882897,forward
86214,-0.44044937270805234,0.1051242160335183,1.7473212217122316,-11.047528746624852,-8.530896028062172,6.9315035004056655,forward
86314,-0.4346384579395875,-0.251266671153903,1.564046136766672,11.027204664975832,-4.534133568714224,1.7660430602675867,forward
86414,0.04776482727024704,-0.530385225829482,0.23998072250783442,14.174099065616964,-4.295345032688701,0.015612691864738444,forward
86514,0.8296541497386991,-0.47177390077635645,-1.3639204547852277,4.7668983047786195,4.075486365947867,11.606336404701214,forward
86614,0.5266230237517505,0.49391675900146365,-2.9382459935039282,-5.128095356674995,24.755619373097478,-6.188964607429607,forward
86714,-0.9095140145257115,0.011145663392543793,0.7142185291796922,-6.4411544014935185,-1.7601613068968538,-10.179709670118772,forward
86814,-0.5847807232858613,0.05852993037998676,2.1789333541005846,2.2723550583219945,7.34193340961314,-18.92505400132548,forward
86914,-0.8521273358967155,-0.15115969876050947,1.2857061652481556,8.834550870635306,18.905313047076852,-11.294068693584693,forward
87014,-0.5804118605518713,-0.7055601525582372,1.6494214039742945,16.05390714408246,18.85481233590107,0.5369323764338094,forward
87114,0.2515211939042434,-0.06034340954273939,-2.089127995491028,28.565978712919783,37.067153172808645,18.43529187179513,forward
87214,0.8161044208791106,-0.2671728269465268,-2.761193728595972,2.304804433295079,-6.2439881844964065,23.814450041320985,forward
87314,0.6582891366869211,0.1694296610750258,-1.9659154573202131,-6.438564479137614,-36.47052931861886,-6.8270553938441845,forward
87415,0.4693154747735709,0.6073094755560159,0.8630459856003523,-7.26653495136537,-9.346983251794573,13.040607828512192,forward
87531,0.646535862790048,0.19972148509472606,2.567303141611814,-1.8384085943587545,-24.896165883196122,17.725747915152112,forward
87631,1.1764292134493588,-0.47731648346483707,-0.8069833221167325,-7.713726219346322,-16.256157583142997,24.61586174984797,forward
87731,0.046058644406870006,-0.17383680999279022,-1.6521850234687327,-6.256665869369597,-18.701604362628512,-5.555085913298812,forward
87831,0.4688414640536532,0.6099051911376416,-1.956266169965267,11.18661445001476,-50.89779788355881,-4.006002851521328,forward
87931,0.08330174886919557,0.6704642892576753,0.10453940188288688,21.47798917532678,-4.236006483613745,-5.727392803038016,forward
88031,-0.49906815041527147,0.445457556258887,1.9410475580453872,7.512905851143253,17.915294202356428,-10.505151962370602,forward
88131,-0.3775413003090769,-0.09891177125945687,1.5577473288834094,-13.289158412408955,23.684799390495805,-10.15415707866011,forward
88231,-0.2669880084315315,-0.7435932383544742,0.7267354809254407,-4.995629387251299,2.0637491282387574,2.7619705522286,forward
88331,-0.1313129521159455,-1.0055353250406682,-1.0346686266750096,2.9755083057794094,-5.37772212225286,7.004368812245008,forward
88431,-0.6192671859838068,0.13555018782690167,-2.6086574807852507,25.58595351766488,-0.01921177467051204,9.475092841188271,forward
88531,-0.22144677549488842,0.6013941140323877,-1.0459890621125698,15.311670486977173,11.154442551476707,6.617965374103523,
88631,-0.16619332776861265,0.41213557076305146,1.4177245256870985,-33.75691223684572,38.85168694254163,0.3305581039401684,
88731,-0.010415705150179564,0.5374567716509103,1.3375105867654085,29.546008405979062,23.811502814694126,-6.870805743685878,
88847,-0.2091816430857405,0.2176540321484208,-0.17482815911769867,23.566242674430015,-29.57427514385916,-10.325053534335705,right
88948,-0.9771702312998473,0.3774088330358267,-1.9020213695585726,-22.19087650956852,-45.180687076542604,-37.06816062571122,right
89064,-0.8614194073118269,0.8093640797734261,-0.6777145526468753,14.578307953151025,-14.131733109742667,-27.212376945848533,right
89164,-1.4982259032480418,0.4923389882907271,0.35853345217406746,0.6734918169653122,-19.067333671926015,-47.32967632529288,right
89264,-2.17274122146219,0.7623296491369604,0.83772332829535,-46.991626357606854,26.976743957219558,-96.50198742449346,right
89381,-2.073233384005725,0.32230332414656876,0.5216483771443367,8.344982547722655,-2.269031104073725,-81.1041933747243,right
89481,-2.367548923291266,-0.557698472429812,0.7175625789105892,24.69456089701215,-17.93184375071537,-79.42079080093711,right
89581,-1.4489885557398199,-0.5336778376340866,-2.3456471803456544,16.391243357000217,-86.95969405960874,-69.40597811908174,right
89697,0.7790869418662041,1.4918305031225085,-2.1824293795228003,32.50722326025975,-23.54229432365266,-52.79749547288738,right
89798,0.20422033088393507,1.1367027677386998,0.41178281180262566,15.097455264038063,-36.2031410729912,-39.367004224851584,right
89914,-0.3763977562971413,0.6146390877917408,1.5793623638421297,12.37180509649465,-24.439728246626267,-23.381197481888737,right
90014,0.8935487489569932,0.10288052875995636,0.702568423396349,-34.54660504830425,-20.62417625548746,-42.40867187736585,right
90114,0.3885499663837254,-0.14237638058513402,0.3755547296017408,-16.24325364825355,-21.328028957004562,-39.42857496512466,right
90215,0.21386897891806436,-0.29182576829642054,-1.1143424673706293,28.107997453597502,-25.716623574223686,-5.584820714963639,
90331,-0.09482687656600028,1.0421209885075688,-1.8090479023069141,-4.402263533295611,26.569490512862963,-26.021475407448865,
90431,-1.1556216954812406,1.229482758244872,-0.7858207071006298,-33.88079820801141,24.74417539114312,-38.08123135888044,
90548,-0.6111696581155062,0.84430679833889,1.7706956675589083,-25.20255109388997,-5.846338839886496,-17.44024771539287,
90648,0.026642014541570096,1.2803224263831972,-0.07340425890684127,8.15832201544267,10.73477609207726,-5.615323059136447,
90748,-0.15133518319157882,0.514135517296195,-0.6057996555149555,-24.36640616588618,-3.2297486506982054,-8.479705467780217,
90848,0.1743600301492959,0.5728839127324521,-0.8069944280326365,2.5690593296409947,6.372329573435062,1.2605957214734205,
90948,0.4891486678168177,0.4635720357507467,0.8499263917863369,10.279044526312854,-1.3447252959145832,5.340284147864727,
91048,0.8157550959847867,0.8591191675454377,0.15998013407588005,3.784273566721558,5.517080179435922,12.680410118668753,
91164,1.6779742753721774,-0.052473114559054373,-0.07491290990412235,-6.503510186634327,9.916651764424902,51.24347717254774,
91264,0.8004184106431901,-0.3209846427634358,0.5457458765685558,-0.7895277663405432,21.99624002388525,59.34366830173808,
91364,0.6219406429767609,-0.23582331056743858,0.580117517247796,13.020422911967511,10.510636604274122,53.19971848292026,
91464,0.45389279164895413,-0.2833417253285646,0.685708474010229,-16.921353121505124,28.741675084034608,31.90094151858357,
91564,-0.1457118451507762,-0.8273656004101038,-0.07273907299637794,-22.252129646045194,11.91507461556413,37.626945231899136,
91665,0.7100103369001298,-0.5384758855655789,0.27291619290411473,-3.0029720695452076,-11.017395659554047,40.87782499378548,
91781,0.5198655853807926,-0.5398229162603616,1.0772358487695455,15.799608955999128,-4.2569247917205555,31.18769901450499,
91881,0.6478672575242816,-0.34370310891941186,1.1036141526073218,20.17981951601206,-27.73189991713992,48.78319522218496,
91998,0.5762310312032699,-1.7264153579361736,-0.4446089766055345,-6.362335299132041,-10.595520487731747,68.92679936767031,
92098,-0.2167703811816871,-0.2717527020826936,-1.4702508317381142,-9.323506184069947,12.104469784833059,17.098082558731914,
92198,-0.38754678069055076,0.35205709576681254,0.035060791987180706,-3.5982055533520705,13.403700684790069,23.4569391571423,
92298,-0.7191670184325426,-1.120171319654584,1.652298420715332,-16.43941668121632,-2.932313976024837,77.55259062896606,
92398,-1.1321272034514696,-0.5089492006994784,1.6798153731942176,20.312656450085054,46.18283633722897,42.713301729443,
92498,-0.9640766487099229,-0.393513434009999,0.4977776722133159,16.6383544785294,0.004393305740199139,12.24238923342219,
92598,0.23666494902335106,-1.1494577660240233,-0.35447453217208386,36.05200947722633,10.418991687311829,24.247688940374893,
92698,0.5288480793900787,0.9538882860422134,-4.502823460668325,30.086269539137902,11.398346045416924,25.270178504409557,
92814,1.148764888389036,1.5210807091347873,-0.816143364650011,-1.0333692016088478,-7.498090317059849,25.263361975617887,forward
92916,0.7159268674675375,0.8516327573128044,2.4049738140612837,-22.07145918966731,6.556698150361686,14.713520085507891,forward
93031,0.6389565866421908,-0.22246230921298263,1.3415601544171571,-16.28386936815303,-10.43434766011331,12.88582037399407,forward
93131,0.2991707790306769,-1.3453914031431078,0.06196984170079231,-20.014231824868855,-2.8608766006088504,6.57922582179168,forward
93231,0.1199403480997309,-0.8813679703630507,-1.202447451803088,-0.9212125862387726,-7.506937973355955,1.8026023948520205,forward
93331,-0.06922276283795945,-0.4246208121962845,-0.9910422509163618,11.093341386709065,2.8450303482910093,3.468036448480202,forward
93431,-0.9266567263759672,0.7324870301894844,-1.1206973893553018,1.3833923841882005,12.931700462196337,-17.89814701244511,forward
93531,-0.17185644983053205,0.3771164259605109,1.1260533634304999,19.617056324632614,-27.60179335118764,-11.792624691671433,forward
93631,-0.3508052325421944,0.06506064732298254,1.986022425803542,1.9670586224705298,-1.165150871455074,-5.809221030615707,forward
93731,-0.11326695301672443,-0.2577973880968988,1.744819468024373,-11.690216250350847,12.170103633888651,0.4779199155308695,forward
93831,-0.2181164620283991,-1.330928724157065,-0.06453413923084736,17.410959864231856,23.483025357129872,5.235030932754831,forward
93947,0.6841779034420847,-0.7240317749246955,-0.43106618894338605,-5.4892142882827395,29.46405979631725,9.494545219944467,forward
94048,0.6304258549883961,0.3139171885952353,-1.8091835113853214,-19.766541844807513,-11.848380379639893,4.654472964153386,forward
94148,0.3144815444797277,0.43518297661244865,0.533024342161417,5.424054710487641,-21.07005954224235,-3.8371802120324765,forward
94248,0.9379152755584568,0.19071911734119057,2.0623867035597563,2.624024850099849,-12.220388340331931,5.8634821878164045,forward
94348,0.5941804928591474,-0.32220512446910143,1.3176479484319685,9.809762719008788,-2.779502367167553,22.74043694528233,forward
94448,0.7248778703600168,-1.1811660327129065,-1.4878805964529513,-14.318866632622676,-0.7987480948332373,5.830085550982804,forward
94548,0.05716711759418249,-0.15545418108403683,-1.9338252055764198,-12.560762279883054,-5.776313606081409,3.1768426457175214,forward
94648,-0.26911051701083777,1.1665247822895646,-0.39070787506997584,9.766413215894008,20.341116140809206,-11.73381334782304,forward
94748,-0.5469548870321362,0.5588309835910796,0.14768354708254336,-7.991061781726458,1.4751170222647116,-18.54539110612115,forward
94848,-0.5548422427484765,0.28234686907231804,2.475334467488527,-5.255235912980198,19.667717545253893,-20.119848747552055,forward
94948,0.025223507779464124,0.1281540862262249,1.6256740331619977,-3.3285204431725828,8.765176639235486,-3.765546041791029,forward
95048,0.18445598355950787,-0.9756808695249259,-1.2168541628181935,-0.6217697292277147,7.436633982455366,0.8158948044968783,forward
95148,0.3929019510481506,-1.0682459021061659,-1.7878209898829458,23.55996231548819,11.787525101682373,12.279105769079239,forward
95248,1.1039144507281482,0.3799136554636061,-1.9343752406746149,18.79448298250964,1.4968097030686722,28.218386970963248,forward
95348,0.7879672906752675,0.5549040194056928,0.12581190701425074,12.139781862842026,-1.2458350423467883,37.31234330363376,forward
95464,-0.08272245114389806,0.6326371012970805,3.711078624215722,-4.745089083871945,27.41993102679959,23.670210106428655,forward
95565,-0.21264078882997856,0.21913974066153166,2.932089808961749,-1.5935585856099623,11.93884025878119,22.091707285461812,forward
95681,-0.15617162690469993,-0.8932022005416452,0.1570715531527996,-16.643948403459643,-7.18972862037493,-9.159755813813476,forward
95781,-0.10685889433901756,-0.3900023571491241,-1.7638941708505154,-12.362811444905038,-3.1358344033841763,0.8322552953540274,forward
95897,-0.7377437816739082,0.742434569838643,-0.8524076872080564,5.350604136813793,15.165881806690543,-5.030671672788049,forward
95998,-0.9349038918480277,0.15112974201366305,0.11741057389378547,-7.692313576298331,7.953606731865401,-30.59286808497233,forward
96098,-0.7648043686874211,0.04799713818877935,2.092377937197685,5.391062762362364,-1.2088739005400875,-24.361746269324936,forward
96198,-0.24369126746356487,-0.3533079726107418,1.5314052654027939,4.940076470523823,6.174003504939517,-16.01750906599546,forward
96298,-0.6522165387749671,-1.454255828618258,-0.4453787919342518,19.092072617099802,-3.2753344004359284,-12.203365801372968,forward
96398,0.9943567822918296,-0.5658554754003882,-1.4154969127655028,8.769553082946171,22.32073718871068,-5.384391375090554,forward
96514,0.558917383232899,0.5586570883288979,-1.3523621189385653,22.69833224414379,5.515022158061632,29.533198386190705,forward
96614,0.322349866702035,0.7987216897279024,0.13912965374886987,13.990878387357725,7.892836831272505,11.288531971488752,forward
96714,0.27069961283318694,0.6267017198987305,3.555526827976107,-0.1365273172980626,-9.109667475308834,15.632966000629157,forward
96814,0.271022287182603,0.05567804808020591,1.8907330828249453,-7.618280302110917,-4.806388324125518,13.453917943115295,forward
96915,0.7445332956835627,-1.006386388912052,-0.22013386626541614,-6.201617959753879,-9.98482132120986,14.67015521446748,forward
97031,-0.03332432358339429,-0.25740020547285675,-1.5147949068635702,-2.263887758185294,-1.924519777432867,24.97239420942805,forward
97131,-0.8041158769216388,0.7937051767401396,-1.1861410446465015,-23.60767289438802,3.856185213398037,-14.024697215259398,forward
97231,-1.2292132936537266,0.21354235904589294,-0.31841070062220095,-2.1488609692599328,16.797516669210918,0.9092648778331278,forward
97331,-1.0037024105250836,-0.5837466675303876,2.8625895717561245,-19.096935711788852,7.637147845919431,-7.726797493870434,forward
97431,-0.8807321566775441,-0.8400098317973316,1.9322294608175754,9.162551068731304,-20.508752888703413,-14.629179202089281,forward
97531,-0.6900526406943798,-1.8776688724599777,-0.22147651304602622,-11.168084146796515,-6.868880057226757,-18.62059148888299,forward
97631,0.24297915540514511,-0.6586912877470255,-2.858866167318821,-8.01551471272875,28.40511922022952,-6.813945699505991,forward
97731,0.5777196623258293,1.284721391994506,-1.8785645061254501,8.060583715967079,-0.3209705994187332,16.868004221445446,forward
97831,0.6026409722883254,0.866663737706095,-0.347965296408534,15.776968586447829,-1.9612828437536376,15.584253091468627,forward
97932,0.4973014695363119,-0.08056158331558108,3.3775884278833863,8.095847982651856,-1.4216163639394133,17.445180819520914,forward
98047,0.537812234025076,-0.548478662533313,0.9748732064038514,15.421395768446134,-1.1461712698554893,11.836124458947953,forward
98147,0.2475449106844142,-0.2955976880505681,-1.7664315803736448,0.008238502139717978,-5.774148863001338,-6.149763590461965,forward
98248,-0.7079328730389476,0.508232722993195,-2.2596330307126045,-3.9869124727911425,-15.596069318732749,-6.912550152345704,forward
98363,-0.08920987693443894,1.0559937387764453,1.4134545932829379,-1.4506576879600728,27.42976649920441,6.564613058949261,forward
98464,-0.3333666064852848,0.06406754463240504,1.230523791730404,-7.876791863138498,6.358898860205878,-17.699369724577522,forward
98564,-0.7971094322256743,0.16696531678810714,2.2680565756648776,3.017946405526814,10.241229183973077,-22.666365251280833,forward
98664,-0.4800718465875834,-0.3532245321109891,0.5113064313501119,0.07138401456309576,5.0845170422230215,-15.348782319832436,forward
98764,-0.4220339375082403,-1.0170398848734796,-1.7561533474653959,9.030667799821174,-19.082006625810497,-5.0381789044595395,forward
98864,1.3930916042119263,-0.6077445059724151,-2.5943384480535983,-5.338162947240615,-7.573506704554191,12.606962533202667,forward
98964,1.0385664378311485,0.5492363490328193,-1.894293990176916,0.2679267099941795,-7.38463575230406,22.030968120720182,forward
99064,0.1492357175611425,0.781722916392982,1.8625468527823685,2.3161946275097214,19.750796551223342,10.0900420929212,forward
99164,0.02728856881679967,0.18139789289683103,3.7951217660367487,14.906517325790356,-7.272870805594202,7.556226325954059,forward
99264,0.40484362365659327,-0.6172424021579325,0.40588966211080546,4.571559163384486,-13.425899653366256,-5.372932878984211,forward
99364,0.14273476556874812,0.14691811566799878,-1.6506640975117683,-20.355182915404846,-10.495708372069412,-21.792975301732966,forward
99464,-0.2990736570654437,0.6746763539947569,-3.942905266362428,-43.61890285111666,-27.03520696142028,-22.821507875635795,forward
99565,-1.1686378289207815,0.5327896566227078,-0.5584849466323852,-0.7877864949890131,-4.36498820278709,9.020146747178416,forward
99680,-0.8376247632917017,-0.13264774438366292,3.4698353344261643,-10.86571423356099,10.331723214060222,-15.170942976865522,forward
99781,-0.8321192246779799,-0.5009951729550958,2.472953125309944,-0.6193698248689543,-0.9300858557442654,-15.241898397058199,forward
99897,-0.6881232800669967,-0.8711201325930654,-0.305333192384243,10.28409715875137,21.827570209879077,-13.974966607912535,forward
99998,-0.47984198335446415,-0.3892851487904787,-2.1219734495162963,-5.052606398420722,-19.578071312397473,-2.5378114276315977,forward
100098,0.9595917583808302,1.0816048576340078,-3.653815937292576,15.051459062619903,4.799210222194657,20.555324533559144,forward
100198,0.27146168324686587,0.8977486117996275,0.36067104872465133,11.575949746857473,-20.89182575585087,23.367388546934265,forward
100298,0.3629675256313756,0.5356755873225629,3.9922465126365423,6.178184861372034,-9.16073679973302,19.985205228443593,forward
100398,0.9037186991851777,-0.013299772686511278,2.218878410997987,2.454181737660315,-31.785982604663086,4.107195092282828,forward
100498,0.8791260366551578,-0.7713593432888388,-0.9185264652818441,8.237172280542236,6.1195498217815905,-12.20535594774238,forward
100598,0.9823726953137666,-0.6352661346264183,-1.0473200184553861,-9.230647200982684,11.982522733618007,-7.868540140847477,forward
100698,0.6124981667729095,1.424661631473899,-5.176760248342156,-13.113493630919043,24.513876780255924,2.4847673247636326,forward
100798,-1.4012700883619487,0.4448997762456536,1.368209676411748,1.260733712638996,-2.4489282549715177,6.054393659081077,forward
100898,-0.6790061998926102,-0.17864596384018658,1.9736521890521048,9.847765037777092,14.650914571575553,-9.5367549352415,forward
100998,-1.4062594210818409,-0.13547595354691147,2.604960379832983,10.739569177327317,10.850482911711861,-21.26022054647197,forward
101098,-0.29148258088193835,-0.8459335227578878,-0.7229781742185354,-3.9056532853486776,4.629719504827614,-16.643596648717388,forward
101198,0.05845993388369679,-0.9436505312748252,-2.0264421144753695,19.165918914858686,11.565129873438527,3.764889916743885,forward
101298,1.1339352757867425,0.5880076859757304,-3.1042326745182276,17.126576400401913,-8.806249128035711,22.29652929074486,forward
101398,0.290669766661711,0.8743766501709819,-1.114221471339464,-2.843833571082376,-18.150375653209927,20.14482674934679,forward
101498,0.6665956311307847,0.9282447262197733,2.8895529820054766,18.326565505492283,22.647961306562234,15.293780513993616,forward
101614,0.30149304796578363,0.44331645257696506,3.755947108989954,-9.285902577594442,-21.736716741086862,10.529643313186975,forward
