time_ms,acc_x,acc_y,acc_z,gyro_x,gyro_y,gyro_z,label
21,-0.36709260620474815,0.14413374564647674,-0.17840075690746307,47.55691330388462,-9.293693262116488,-5.077216423773924,
121,-0.049703955806395965,-0.2366504090413451,0.2864776852667332,-2.6277639517836078,-11.622822773810332,-2.055968048670232,
221,0.02505369960393291,0.2438698389008641,-0.09845686709880828,2.1480479633052894,-5.065255908763586,3.094021052502416,
321,-0.1860046925725415,0.24559505525827408,0.12449205658733845,-2.884862303983231,-0.8316497563954234,-0.39068377895611456,
421,-0.0735324472971959,-0.11437456719875334,-0.14696224707067013,-4.332044919759649,-0.13296330591285144,2.7773886370628458,
521,0.09612991285542957,0.15535159749239683,0.13622808708846568,-3.765275395545167,4.543420064664502,0.02604740664751964,
621,-0.036540116425277665,0.17999065644741058,0.04830781157314777,-1.991729692639439,-0.07654742413221384,-8.875456873574512,
721,0.2255475436109118,-0.06455693558454513,-0.6614040538370609,7.217501023313848,-1.0964342592062797,-10.796929105977084,
821,-0.2191291827348992,-0.05562573337107896,0.7187316226899624,8.555992704393736,26.723118542769473,-0.8340109207749851,
921,0.389519542068243,-0.18608429714739322,-0.34628304241001606,-8.467952419765918,11.767788416301975,-3.2003348679243686,
1021,-0.0870392548970878,-0.32192396944016216,-0.15337503672242164,-2.1824789469113237,-5.978496597023895,-0.5959400348599891,
1121,0.017284275745414197,-0.11833411847949027,-0.04430149854123592,-5.778656360966724,-7.606484565414306,-2.3210600700762973,
1221,0.12107896020822226,-0.06764964090287685,0.04177461041212081,-4.587041494685612,-6.137053035303395,-1.1979952234612554,
1321,0.006144201843440532,-0.12840601516067982,-0.10885141986310481,0.18920142935229683,-2.2260075290484034,-2.129955005637337,
1421,0.10407366580097004,-0.17633622559309003,-0.07826748102903365,1.7851124148217334,-3.853757934921744,-1.1740883874274473,
1521,0.2341738811262883,-0.07666150713711976,0.19467559988200664,-1.948881994985245,-5.112347928656708,-1.1472176761806765,forward
1621,0.24409382038246838,-0.2917868975907564,0.16617022088766098,-4.447340647383579,-0.4128846418425799,-0.7425618915036546,forward
1721,0.27953897204473616,-0.27866175081878897,0.1800415098518133,-3.9717033490568165,-2.665016443847092,0.5582471556775978,forward
1837,0.3201522835925221,-0.33432956976592537,0.06013268940150737,-5.609458061073521,-2.7363409076983616,0.6777676754682989,forward
1937,0.3166726978484541,-0.3305149799138307,0.09374678971171378,-2.6373507626139556,-0.6773806492022825,1.3467667754244765,forward
2037,-0.1415114708514884,-0.49893122616261243,0.23929683189690112,-3.705064716690566,3.8256013338420125,1.903680016501512,forward
2138,-0.28289701376836746,-0.532589750136435,0.031087796702980994,-5.040338951784556,8.303384134356339,2.4446152039540663,forward
2238,-0.46205300948992367,-0.9622792438991368,0.5001911630958319,-15.843257279890095,-7.319707974053919,2.8217820919035783,forward
2338,-0.47432248928062615,-1.1578716663651167,0.628462153699994,-8.227599770420463,-2.210612069215783,9.786301019209793,forward
2438,-0.08982420944049954,-1.0701669332966208,0.20896891365051268,-9.374033362228763,8.18691404108199,12.86847340104953,forward
2554,-0.27237786651002244,-1.2884838132679461,-0.48485798488557336,-1.3280487487257624,7.7894943615829195,11.124991629549259,forward
2654,-0.38381778676267714,-1.0947075003132223,-1.8737123899191617,-8.787837499354296,10.090144545758749,9.476834539426624,forward
2754,0.17020071851275861,0.2864597112186253,0.9366139106363057,20.288291457768324,-4.756877136605741,14.2118324456867,forward
2854,1.1582088624302298,0.8616491244144737,0.7518833661854266,7.681845457621641,1.5668557476063858,17.738110557549835,forward
2954,0.933940526708588,-0.07433481775522231,2.185668215313554,-6.315542953788753,-4.527494197954148,3.702441070275635,forward
3054,0.4526822833480313,-0.4344336195498705,0.49173780752718443,-11.375935340976467,-3.087480719485306,7.218194287514604,forward
3154,0.4363841325631365,-0.41023017553314567,-1.3591226991146803,25.214894953267475,-23.0911637440679,-25.79108800410246,forward
3254,-0.7229473406888545,-0.25823008042573925,-2.985921352392435,-20.048746478292223,7.215325608063199,-52.444965504160926,forward
3354,-0.25485841203555465,0.39276086207702754,-0.32673838398456573,27.350165767069786,-27.74285383302133,-29.111615204955424,forward
3454,-1.0627586298014968,0.26000468888282774,1.7608634248524904,6.242295578242713,11.175735666214223,-4.210947373322615,forward
3570,-0.49618853985834865,0.15810761820226907,1.0689327153265475,-3.151809788966013,-5.052305016323595,-7.515214455082718,forward
3671,-1.2603493134126067,-0.5822095210909843,0.4201104951649904,2.631202525143886,-4.583689579350429,-7.853641790720387,forward
3771,-0.22045787405539302,-0.7429553788423537,-0.624195143905282,5.645579089612311,18.3193186747829,-2.126776192908931,forward
3871,0.6023932080723345,-1.4309908344954252,-0.927297800758481,-13.977724296789926,40.39479060058759,12.571850238226924,forward
3971,-0.2256692154955119,0.3928159532651305,-0.17525076844394205,23.980983713664237,1.6201585438891655,15.586875884109912,forward
4071,0.5134653629496694,1.264774436378479,0.13240940558314324,-0.1851442169440299,-5.525966255546109,30.57577212147979,forward
4171,-0.14197448525335638,1.4363926935389637,0.5229068527728319,-2.330526285379112,-19.334505059047526,-2.803069081125036,forward
4271,0.11048384337052702,0.4451739170119166,1.2682903355449437,-27.37001088170326,-5.4342197395199126,-38.16396885539139,forward
4371,0.7202062252871692,-0.9405535881727933,-0.35358079820275307,-10.043401292400121,-32.1504551591533,-46.50129732237539,forward
4471,0.2884462636596523,-0.6966118530794978,-0.7413467746019363,16.870084014047716,-7.526510734196272,-34.56169976636998,forward
4571,0.038348727616667744,-0.7010384373500943,-0.8589274443656205,3.2736198095108437,-20.069305347693962,-33.99581517853984,forward
4671,0.12695837363563478,0.5672849236816168,-2.1777701555401086,5.303929185346865,-1.821788609673998,-11.156340490292324,forward
4771,-0.4194028948849067,1.253408992755413,1.3311410517334936,0.5639211752480272,-9.47434152037957,-23.817274324542787,forward
4871,-1.2229073984425514,0.8401295126542448,-0.16048516098856924,-5.842589919805805,7.49998057191265,-2.357320263719426,forward
4987,-0.5643754294430837,-0.23600129748284815,0.14438158292770384,-10.413314092564256,-5.019688301715846,24.955713179927585,forward
5088,-1.0906332366116345,-0.31975276288092136,-0.19213994392454622,5.779806394068224,25.466580593993275,26.727377165716977,forward
5188,-0.5660152690719813,-0.19525632237941026,-0.49273207926154133,4.34884163558918,9.065420656091845,28.707517307995374,forward
5288,-0.08442669777851551,0.44634149948656554,0.21616437811255454,12.927626254356426,17.574518989191567,14.475298455183479,forward
5388,0.6040644657528027,0.6587965016871691,-0.2868646387577057,-2.8023119973442223,14.337639407556455,21.537290585248122,forward
5504,0.6085270711848512,0.7072863918289541,0.2549561733216047,0.46054145968312404,-4.635624630251913,22.749705511986036,forward
5604,0.6066471026571467,0.2744733592182398,0.47084114997088905,0.5295013974211,6.772336613969097,-13.834939192190811,forward
5704,0.6113953200975433,0.11435761606395244,-0.14245558330118654,-1.9587785122057702,11.471797045977596,-15.409547097783454,forward
5804,0.06540149664990604,0.5472606650456786,-0.4690706331670284,3.11778456128536,-7.858265828788485,-15.322141166974802,forward
5904,-0.6503539597734809,-0.05707827026695013,0.14858663340210915,3.4248399842915145,-12.421610835922385,-0.2722611853940666,forward
6004,-0.0075519132168963546,-0.1117974101871252,-0.3551514085203409,4.870450802785182,-9.399170165921701,-1.5782820137575826,
6104,-0.10613903736555948,0.2563157712370157,0.24852643253505227,3.9006881647089013,0.6080887002376204,-5.942979613339829,
6204,0.0029863406007178124,0.1472463247090578,-0.0838163473278284,-4.4883542258022135,-1.0276315225409198,-0.5072411705857938,
6304,-0.03974326898129657,0.10693184997737407,-0.0706932463824749,-12.346054429550056,-1.2570213981033882,0.6989774405535983,
6404,-0.08985898849293589,0.032653730845451354,-0.04864508070349693,-0.37241537080385767,-1.4608656191180684,4.565052554426402,
6521,-0.019244214174151418,0.02185848832577467,0.06990414183139801,-2.7069766437960077,-1.0293668174769262,1.0549509985605015,
6621,-0.022191775400750336,-0.10469634601026773,-0.07183072597980499,-1.5056953522920355,-0.3646393605163568,-0.025129146410549606,
6721,-0.05177165175881236,-0.10668255139142274,-0.12926760042607782,1.9339921825946171,-0.3416552937115879,1.9843744326769814,
6821,-0.08329290797561406,0.018787410317361353,-0.09001344840228558,3.566523294000143,0.59427298845483,0.8715019358508909,
6921,-0.09389423535838723,-0.06864245133250951,0.2741805137515068,1.0038956546797735,2.6947019400838483,2.0912158802123173,
7021,-0.06662773224292323,0.23475889620631932,-0.5520972914218902,-0.9858462394677802,-9.718011080340712,-9.498119116427677,
7121,0.10134024051539599,-0.05713467662930488,-0.026516251003742216,3.0948622329873854,0.22283078620556698,2.2942182804117937,
7221,-0.07033779314146377,-0.15102467420399188,0.020047931772470474,2.4704538095842246,4.763109257336555,1.654337344104438,
7321,0.11013599804723635,-0.044644612890481945,0.22785832303762435,-2.02934503850258,9.397618859206462,-5.420214863513625,
7421,-0.06422737483661621,-0.23605945741087198,-0.08715338279604912,0.49142223902463267,1.3465553597253235,0.8040407977489096,right
7537,0.0314756817757152,-0.06867723038494586,-0.028110826718807217,-0.6767370639555674,-2.5901097592195623,-0.5909239012448495,right
7654,0.11497817738140001,-0.010120996519923209,-0.0583364536345005,-1.195533367152289,-2.6736425458819952,-1.977202307161645,right
7754,-0.04364438633937388,-0.0616761194512248,-0.162443893840909,-0.827834722218001,-1.9883967737678843,-4.293846233052706,right
7854,-0.12489663706654681,-0.002675356689095497,-0.07388824303150177,-1.8118494037711599,-4.369476490845434,-11.01787548034324,right
7954,-0.44414800803028043,-0.07296352940201759,0.004703647646307945,-1.4570410333479786,-7.8754796130442095,-21.930675330495006,right
8054,-0.826631660112366,0.08756868559867143,-0.19922785635888576,-4.352225994322921,-13.688596412807764,-44.615721149155824,right
8154,-1.326974287442863,0.24596885700672863,0.20253917286396025,-4.066336900667813,-23.2749743799167,-77.80520517541898,right
8254,-1.5885250367239117,0.44442894386351106,0.07093406940102577,-11.048975039181602,-38.115669172675645,-103.44227241373765,right
8371,-1.2753800015449523,0.05528656454458832,0.06837386352419852,-9.273852416351247,-29.534827386307754,-133.33504610878367,right
8471,-0.20750331634366884,-0.5456909315109253,-0.8478922556102275,4.65657111288905,-14.6953415370319,-94.84793417356981,right
8571,0.009295980405248701,-0.6777925863191485,-0.18304127618968485,-9.401922732157217,3.96839753749853,-64.44289629077284,right
8671,0.4224726211864501,0.6529561050958931,0.6324386561155318,25.409838797463394,-2.5638276181801762,-66.84867333155891,right
8771,1.1143414444573223,0.6852163065791129,0.0501104770809412,9.365271083297282,-10.351939720229815,-61.6750236013277,right
8871,1.315187403537333,0.5379942395284771,0.5180541520446539,1.3247022761975735,-6.9428599705612815,-51.42518752522676,right
8971,1.747233397298306,0.05049319278821349,0.24927754316329956,-7.685940156029064,-10.110464358539538,-47.65653161292926,right
9071,0.723478159629926,0.014919775103777646,0.5419102439284325,-1.6593989411662406,-29.237294100778243,-47.95111425673732,right
9171,0.5825069696675985,0.15358312651515005,-2.323703059563041,-12.650918215606284,-10.66486654460124,-46.15030756130678,right
9271,0.06320485425530932,0.37085955752283334,-0.053009705653786654,9.293976714967043,-26.875013412174095,-38.44675234740826,right
9371,-1.3811942456692456,0.16595687039792537,0.2817033104717731,10.771599349440091,-2.736804720231688,-6.898615285778408,right
9471,-0.37695086013525725,0.43609132362902164,0.01783200928866863,2.068766755957778,13.07529750553304,4.289153039319261,right
9571,-0.7618612279076129,-0.15625965224802493,0.5412123247921466,9.431569168249657,-1.9330069278068427,26.851778816165,right
9671,-0.6667721567414701,0.24326252065747975,0.13924597360491753,7.543351419368585,1.7593385892669846,24.550824688571108,right
9787,0.2562807912551798,0.30275135919749735,0.23269816428422926,3.2459236058698533,5.839848452627691,6.3375668987674585,right
9887,-0.3553712983487174,0.1177428745880723,-0.39564240886270996,4.390323935739605,8.695561643667423,5.881057545211316,right
9987,0.3378826956702396,-0.11612024182230234,-0.12471300586163997,2.3020606182394374,7.566075458737218,7.836727681014496,right
10088,0.028030459525552578,-0.09080342973619698,-0.14134206910133362,-8.77071080001049,-3.4382120005825185,-3.322979879095233,
10188,0.41138208551462735,-0.32424773621261116,0.11756021149754524,-1.7486123107840084,1.0028346274808944,2.4703908437778135,
10288,0.051268305346556006,-0.046203532770276064,0.013405425018072127,-1.4804685822011223,0.3900740244901323,0.043680633887391816,
10404,0.19940008938694373,-0.15007248804569243,0.02357201424539089,1.766287559695532,1.0892531690676575,-3.9868223996714627,
10504,0.051267268733517266,-0.4032806486561894,-0.11553192054033279,-4.078621422776903,0.44264260211756185,1.398269176530723,
10604,0.0897874576266855,-0.07506605463922024,0.11898293777704239,-6.096015551222665,-0.3918891205816367,-0.5895679486120433,
10704,-0.02396939323225524,0.0474722375318408,0.2012128926962614,-5.5344134920021215,2.7163137258348264,-3.2261628013839485,
10804,0.02777937997446861,-0.19152794950604438,-0.06318330914378166,-3.187787810419055,0.15615973557191223,-1.3690985058026564,
10904,0.27975838694907723,-0.2583484461084008,0.08259294301271439,-2.446928503648585,2.603475158764808,-3.302255377606122,
11005,0.4277314915627241,-0.47186172519028186,-0.42384559004008765,-15.410170352545219,-3.7067667144543686,-2.1969849880479613,forward
11121,0.28045250669308003,-0.33782807940617204,0.10569441713690757,-7.917221460383097,-5.148933410059058,-0.4710249996463003,forward
11237,0.05919215714838356,-0.6109926941134035,0.07814297786653042,-4.11991802715927,-4.1053005685617965,-4.940356935166617,forward
11337,-0.0667540803026408,-0.6209722363360226,0.5647703105121851,1.6602174966495844,-3.3622705422957315,-9.281932530139372,forward
11454,-0.3154865202711895,-0.5657153362773358,-0.10397124660611153,-5.419849875279851,2.69076625701804,-15.802513493943676,forward
11554,-0.6953935633309185,-1.3361430978044866,0.35467502318024635,-20.185351969239772,-5.537965190370529,-21.52336041443588,forward
11654,-0.5174591087609529,-1.6936767252862452,1.5229460646152495,-9.397946708286623,-7.959531920970387,-8.447925451345794,forward
11754,-0.5808512383498251,-1.8565864830732344,0.763621150252223,-8.434652686241167,-3.7481653447874623,6.582841126296732,forward
11854,0.5983993891958147,-1.4733765625432134,-2.1336025125116107,1.5748565671671153,32.20030529481064,5.833734579546883,forward
11954,0.5791988680329173,-1.1648973272182046,-3.657459846752882,-5.960462763180946,18.39697451055136,22.982876217419225,forward
12054,0.7916961750052869,0.33981443091779945,1.5134417386889456,29.425178944466953,20.630436123861774,35.845908519021194,forward
12154,1.328485422658175,1.2987844041384755,1.3815537266314029,9.463158793160966,2.8228335141489374,34.64437920627299,forward
12254,0.42796504459027196,0.08756956238150596,3.064208707165718,-8.913680319717196,-0.1660465677976379,24.51195749709915,forward
12354,-0.061007609072513874,-1.067220066189766,0.31743864071965217,-34.57267929546078,1.7501256245719894,20.32744210209084,forward
12470,-0.14243261341755278,-1.3320099435225128,-1.721236347863078,42.73340297617035,-23.48745131971204,-29.253416762314057,forward
12571,-0.026275975974462924,0.43028555995970963,-3.925621538606286,-3.508763372397107,-16.940542537978274,-28.208698347625585,forward
12671,-1.6038108686611054,1.4524671916358172,0.9889707053393125,19.256533327029953,-1.550143128481011,-40.29611144255383,forward
12771,0.16326162169827146,1.0068895161285996,3.601328209686279,17.941937062761355,9.743970068054994,-23.67987140900964,forward
12871,-0.12289748087227344,0.07063274836689233,1.4890110617876051,-24.722950578297308,7.190832549699533,-26.653425000025955,forward
12971,-0.754779087626934,-1.319003162433207,-0.6321119083791971,5.373549730443628,10.641431311785281,16.679586623001477,forward
13088,0.6662286244492978,-1.6917938341490923,-1.0020224946141243,-11.228784037950419,16.626835364494173,20.729880263082574,forward
13188,0.4553500047199428,0.634187837870419,-1.3304080612838267,41.358216103774566,16.630066043971592,29.869240278260747,forward
13288,1.0372459298171102,1.49906396150738,-0.13695406327545642,4.770903783840009,-4.7508716927780075,41.432016297756554,forward
13388,-0.575813792171888,1.46470079639554,3.2116531847953795,4.9051878642433975,-6.599498677021924,15.659185389305543,forward
13504,0.15870335560571402,-0.3269406285583973,1.3880910194456577,-39.431481210616504,-1.9336549420043476,-3.48280609223012,forward
13604,0.786257491082698,-1.7171286202833056,-1.1676608005821705,-6.929765217261897,-22.256142382182578,-19.934315196485123,forward
13721,0.26441037649586796,-1.6734055061519144,-2.8788761051684615,-9.292843757338467,-39.895770149637286,-17.272505099566526,forward
13821,0.049048766133561725,0.761793350303173,-0.32938509910106656,70.10411224471625,-40.52212581728414,-21.763084686377695,forward
13921,-1.3683176668308674,1.9901473967790602,1.7256617630898952,-5.435628039149404,34.58220399425836,-29.56851046419967,forward
14021,0.9274830211322754,0.7977019912913441,3.7365029883295295,-12.66871939613063,9.412475374424886,-12.368850185904975,forward
14121,-0.2930095712535083,-0.9466554121792315,-0.48655368288755413,-27.725933746899916,7.037849972669587,-1.9057849954263453,forward
14221,0.27713519883863624,-1.5995251541659234,-0.583088642013073,0.21247976792054488,10.655444298641209,16.38286783753049,forward
14321,0.6318352833949029,-1.6353630680054425,-1.1101040991485118,2.3906639665869585,27.54978658329987,24.78004925221132,forward
14421,0.3611204729925841,1.3005917458213865,-2.019579827490449,30.94906586528308,-1.6980689109259142,36.34570761153688,forward
14538,0.4749544305086136,1.697912463159859,-0.02210895595550537,0.2508689528723073,0.007806465994288226,45.31951750161228,forward
14654,-0.3894568520955741,0.5660191415295005,2.965748917457461,4.628216863210211,-7.437778039141344,3.41727213469114,forward
14770,0.23008345174118874,0.19438187763243914,-0.05820961238443851,-10.02920218288931,-10.124629317104498,-5.244112523030009,forward
14871,0.017300971151888368,-0.5202493240013718,-1.1313175675690172,13.272672043299837,-27.59030497300368,-40.52726211953999,forward
14971,0.3170102592397481,-0.39381080952137704,-1.7280729158848522,-27.303804150531032,0.42878118676427057,-31.534426737531515,forward
15071,-0.23760719830952584,0.9844625802651047,-0.19575170468091962,23.667645370395316,-30.667907958288676,-25.353744161357373,forward
15171,-1.4715854413427412,1.3879711924582718,0.17697510801851749,-1.6782578405165864,3.6819291584244405,-12.004930876737525,forward
15288,-0.2817806865569204,0.7591533571884036,0.6463882710129022,-7.684496424793252,6.031032704572341,4.205602323410257,
15405,-0.7889891810689121,0.1478045431137085,-0.39048517223000523,1.4975552609052614,19.234977250009393,31.00758692609175,
15521,-0.19325420704307034,0.6142635324776172,1.243899406132102,11.00938470143127,17.068859594368014,15.824400835138983,
15621,-0.19941742411423474,0.46981239144504067,0.23580431360602377,-13.482952223503373,-10.202977563300067,3.7806488707063965,
15721,-0.06886478884629905,0.8307201715350151,-1.3114274664819239,-2.452109415577451,25.580991385232867,7.791600621168222,
15821,1.172071821957454,0.5158259546011686,0.9499977083444595,-1.9128205171582815,-5.836601124564173,4.695939469491357,
15922,0.6066126523982733,0.3107325672097504,-0.4087538193702698,0.3516045314547693,2.240551776555711,-18.508530282717885,
16037,0.36379772937782107,0.2673369314670563,-0.8192483449280261,-7.096893542949763,-0.06177519238093075,-15.609301102702355,
16137,-0.7438403449833393,-0.021583178515732288,0.7943588183432817,8.773018550176307,-6.952029926408847,-2.658381128511836,
16237,0.16330726920459418,0.3015207944892347,-0.5801105029851198,-1.0772961758736097,-6.562209259248239,4.480077744075451,
16338,0.1572766838034615,-0.09559972410202026,0.3088268797188997,7.247482138675618,-1.8299940147447105,-12.252930776632457,
16460,-0.11996782062854618,0.13095803773105144,-0.15632278061211108,4.093478791768974,3.9866879303221783,-3.428197876042222,
16571,0.00800924679664895,-0.0700000034213066,0.27863047889769077,0.1619624748597273,3.279757161366923,-2.468895245792992,
16671,0.04344258015695959,0.2553741064727306,0.03383855671584606,2.7595014388436403,14.617870116371032,-6.561219308705411,
16786,-0.03034706133827567,-0.08896130900084973,-0.40638825928270816,-7.03981279828232,-2.9204206956891405,-3.28560188230575,left
16887,-0.03360664765611291,-0.11440788494646549,0.05273088871240616,0.727450791656089,-1.1161325247725964,-0.28096860936877505,left
16987,0.08486205698847771,-0.05145400064438581,-0.05622808317840099,0.16111028869884922,-0.932141849406145,-0.5815723584148971,left
17087,0.09759951961711048,-0.05558364779502153,-0.109845107075572,-0.9243221365801266,1.8506929030244341,3.161965426488176,left
17187,0.2500773517714813,-0.1686643757909536,0.05781622915267944,-3.5332737196771093,0.5594417984521153,12.483828736619323,left
17287,0.4767113937111571,-0.017102525970339774,0.5145172100901604,-8.532052891352842,2.462542316091234,27.574073028441145,left
17388,1.4136159213244914,-0.11876827211305499,0.8995376871734857,-15.955094797359884,20.246477039669507,53.78163693982701,left
17504,2.4481474776163696,0.2503673842266202,-0.5706020854055881,-16.34622387263337,5.281380596462537,98.98882515034926,left
17604,1.7033990778774022,-0.15317176923528314,-0.5640145237088203,3.8661192966589977,-5.863153058075774,74.64029358952101,left
17704,1.1185444491051137,-0.08243161497116089,-0.9633236383855343,-14.30193544744386,21.149086538486692,85.61532841584263,left
17804,0.6774654732566326,0.7774176204144955,0.1895008275926113,2.876955506245295,2.9159219489036294,99.15160904883817,left
17920,0.2345325401045382,0.8920444088086485,-0.5360802226006984,7.792606366523507,16.975782899000958,112.72941040179822,left
18021,0.03552892095558345,0.883144624646753,-0.3314665815502405,-0.18666089246574297,17.597340358755872,95.63062604112909,left
18121,-1.0014704136893153,0.7434434546202421,0.2512935591608286,2.8934984378584776,16.68425505729918,85.81785718511185,left
18221,-1.5481212762735783,-0.13430091841816902,0.45262160266935825,-3.085749479974119,21.8335790688014,74.21736144592464,left
18321,-1.1304387389078736,-0.6849811826489866,0.13891864134669302,-3.380612374981566,12.21830684018237,55.07164452308356,left
18421,-1.3760066138982772,-0.9006576311141252,0.056140404894948,0.11756323036645609,19.155883659420645,22.848015839804617,left
18521,-0.5277051199000329,-1.3711238102927803,-0.9920680868327617,-4.179078991315805,18.17012685274231,12.930113296987956,left
18636,-0.2521735203331336,-0.26986381959617134,-1.3128326571047306,26.277636529628317,30.449584376563806,1.5165747764228081,left
18737,1.6733718961432575,0.5026324187681078,0.8154986370056867,13.622189044828668,14.07514072360088,21.414234482066586,left
18838,1.1557371385544537,1.4193050728768108,0.4663379933327436,2.8377211921054495,-9.743407431222114,15.699724269576862,left
18954,0.5808448816742747,-0.3215492909088731,1.2937258055746554,-19.5779739822018,4.896149389537356,14.147707214664035,left
19054,0.44839766483139243,-0.714531394521147,-0.04289747696220875,-7.9265882110561225,-13.125416579888947,-1.1146371402311868,left
19154,-0.0423307829901576,-0.8113369872815906,-1.202850187385082,27.8684985778983,-18.31345837247503,-25.412014212714045,left
19255,-0.2096579005616717,0.4929777245856821,-6.867857478529214,-51.25205247505069,-1.4182887811531477,-12.776963380323345,
19355,-0.7889901309169829,1.4466130587801336,2.440663551601767,37.69057185911239,-25.72704132025525,-25.90349413482065,
19470,-0.5084491787554696,1.243565644133091,0.15107085143327711,-4.602362035880774,3.0259686761504057,-15.43323590137235,
19571,-0.46619971737321464,0.7995192698463797,-0.02786065135002136,3.582802196113222,-8.379102757721453,-3.9847400457482554,
19687,-0.5254135018315166,1.0600891913965345,-1.086435054269433,0.519446985436871,3.51974524936543,14.97399788724279,
19787,1.0397856774277985,0.6514891012832522,0.9223948311477899,0.572164519885145,0.16353111051194272,5.071967423396769,
19887,-0.8064496536314487,0.32576427825540305,-0.5780132384449244,-16.261852253363497,-3.278664331099721,1.5126358917058265,
19987,0.24362517995741217,0.24404490320682523,-0.08380933306515216,2.7502883674269394,7.735504277514908,4.258257532382355,
20087,-0.020344925974647047,0.25217764851897956,-0.22231997813284396,-4.998317920463345,-2.8348907190247137,-2.4750272615637825,
20187,0.2870958171650767,0.056282151453196996,-0.1362017836034298,-2.054833596937775,0.013340766841529895,0.18599840413689142,
20287,0.08272588520999997,0.05612608410865068,-0.15545359656214713,-1.1044993252338895,-0.6080969711698185,-0.14838654006940138,
20387,0.032271275433083065,0.08381663958877325,-0.16073358279168604,-0.28069991079404377,3.190958085410999,-0.1553645788225611,
20487,0.034447432162077164,-0.024556933629512785,0.016825462594628332,-2.995161534785886,-6.0860998240951,0.02705982210941536,
20587,0.19333830512994898,0.06318988501504064,-0.022823826226592063,-6.650180815097534,3.3575662495048855,4.281391809988011,
20688,0.07999846954010427,0.0539523933313787,-0.2122621099770069,-1.1930545420921033,3.1587142564432495,-1.1073164581014026,
20803,0.06463916137474589,-0.217342189720273,-0.27229484613537785,1.3650029536215875,1.4264361296159151,1.7154702052186968,
20904,0.07032447700216435,-0.009353665409237146,-0.28834640174806114,5.249454157847782,-3.84819090386136,5.5743291175116765,
21004,-0.014371317758026997,0.09750555772334336,0.3520855912089348,1.343858715663638,-0.33407463750652,3.185039726495183,
21121,0.026901476045220623,-0.07900368634909391,-0.4859972180485725,3.742669176939718,6.21753656938824,0.31000838592470076,
21221,-0.13968193560307846,-0.08078121741563081,0.41338264821469783,-5.199282149525807,4.247999442022642,4.515015442340535,
21321,0.10041886048731394,0.009006605537235736,0.07849486004412173,-3.754020524453456,2.0201473350115116,4.284798793723378,
21437,-0.16800037719057873,-0.3516787639737129,-0.06901449951529502,-0.8684412640507847,2.0273730348231505,0.5981301243451832,
21537,-0.03239325327835977,-0.02929769841581583,-0.07754033579826354,0.9179824403698854,-1.4269402829540268,3.781695170309878,
21653,-0.044947815354447807,-0.03402881859093904,0.05079086056053638,-2.9553665048038646,-0.8812812726384682,-0.8878571439836037,
21753,0.0759761734877713,-0.12028072250261902,-0.038922728112339974,-5.092127153618885,-3.7307466548566373,0.40630700958929894,
21853,-0.04842451958826277,-0.1298898239776492,0.10347264943420886,-0.9250378123390971,0.8146373026376555,-0.053961736114913846,
21953,0.09516451102253048,-0.09437018230706452,-0.02467792966067791,-0.5778296815539946,-2.48840653493078,-1.157871490625427,
22054,-0.06590418090845923,-0.08305734565407037,0.09395312593877315,-1.9193158136155521,2.4765177369067266,-2.107016455640084,
22154,0.06175889323069714,-0.09762363114506006,-0.08459493048489093,-0.5071657717006591,-1.5747906131529423,-1.9787429417063058,
22270,-0.000620227957307361,0.010628946042060852,0.0365904857724905,0.27386171749609745,1.9403423375320248,0.9416297292152332,
22370,-0.034884576903749256,0.018308248498290776,0.10776245558261871,-0.16791198317341832,1.5383158021594876,-1.4571905504577785,
22470,-0.017812811397854237,-0.11746464216858148,-0.12711597535014152,4.897132936777838,-1.0893345977291689,-3.418600606484708,
22570,-0.17308809225102886,0.04217164690569043,0.3127314859420061,2.952562498706163,1.6357282802673268,-3.075733220999707,
22670,-0.0575455772514455,0.14085077845305202,0.09808043500185012,10.682722366638947,11.723872007486085,-6.707086109280673,
22775,0.7016084923230111,-0.8538105397433042,-0.27080022366344925,-14.446193311582762,-5.353138990769514,-2.5543426198571444,left
22886,0.11298269271524622,-0.14682400764375925,0.007713935378193855,-3.727050241855191,-2.0985568394662004,-3.0943964994633553,left
22986,0.32790443208925424,-0.24423355764672158,-0.02724105814695358,-4.909818732500667,-3.4193713506438614,-1.1285742479543035,left
23087,0.25639678231766444,-0.2743864115871489,-0.03129705553948879,-2.3448139739057208,-6.500401596788325,3.195443812148405,left
23203,0.6956509721580892,-0.3550881340257823,-0.24215339037179945,-5.521364415592813,-4.55588302546566,8.219778350047152,left
23303,0.7906354139059781,-0.3007528788566589,-0.04019523226618767,2.7558761024982443,-2.5813240015128103,24.62903376966234,left
23404,1.225340909199789,0.09320449952855706,0.2536363228946924,8.561339034966563,-1.366666851736426,47.517383584063175,left
23504,0.8504761346235871,0.24400354828312992,-0.3314630744189024,7.168634434896991,17.595214462376706,60.69101873817147,left
23604,0.04142576044183224,0.2910347640492022,-0.08853753063082695,-3.4717821669097195,26.519266424348565,82.00010245796571,left
23704,-0.39678573367893694,0.4922971949756145,0.5952239009648561,-6.28064111401681,33.313219733267104,123.19763836151573,left
23804,-0.20188529379880055,1.0928063428670167,0.11766016474068164,-6.798871898894596,44.294251465680006,142.42202540321702,left
23904,-0.4641268931545317,1.2564542056702077,-0.8711357685536145,-3.405956432227133,56.01635530794471,145.27981753308538,left
24004,-1.1508775696940718,1.6824230714745818,-2.3956086043447256,-13.78168676855316,40.74854317317548,137.25463212626553,left
24104,-0.2734098947051912,0.9603596740134059,1.183366903758049,-2.180392324119885,25.36044799202774,100.8448880761652,left
24204,-0.21044841161854563,0.0997032138980925,-0.10326689772903919,-13.55674814861713,16.972915927096842,41.81392291010324,left
24304,0.21907690455839038,-0.5117904154747724,-0.8889110792189836,0.874508926632989,3.8141786962288124,17.91383424942134,left
24404,0.19182897827923298,-0.25435411577522754,-0.5576362208485603,4.93575765653426,-19.73078751204979,6.815460293954442,left
24504,-0.48877738681901245,-0.018211510125547645,0.9532365441352129,12.575225205450556,-6.9670789675845,1.2327866062677135,left
24604,-0.17519264504853635,0.06477686194553971,-1.0166279430717229,-2.5000242598221485,-6.575435493689146,7.063422627808938,left
24704,0.23798253442794085,0.12952420553565025,0.8149146996378898,1.364578841562812,-5.774460063495397,-5.887762229655331,left
24804,-0.1752297804548405,-0.17235796961188316,-0.31916064220666884,6.2088673517842015,-0.8025759889762063,-16.8826840055191,left
24904,-0.1566216356945224,-0.3886639481522143,-0.055852820125222205,-1.6587308632880489,-13.755825111034552,-4.596092775996349,
25004,-0.2762085489803925,-0.1679383996039629,-0.06762392193973064,-3.112578463033929,-16.534885650340172,-10.811812941952187,
25104,-0.23317208367260173,-0.2605095696650445,-0.24045067810714243,-0.8126463024945968,2.445774201678853,-16.903084073022633,
25208,-0.03869757758695632,-0.49820729580223555,-0.2762748556822538,-7.197176941664829,-4.381415661514616,-14.180538226456992,forward
25321,-0.25454777518380434,-0.3811753459624946,0.3516752568423748,-6.318762534208767,2.452199061810308,-14.407011931408983,forward
25437,0.021738661338388917,-0.44052711411938067,0.08497311614751815,-10.884631296240986,9.529957189470045,-13.970540645330367,forward
25537,0.32580029941685495,-0.3639557694837451,0.1805991437345743,-2.389253105636528,9.510088169174479,-10.231854749337234,forward
25637,1.5715353234782814,-1.4432980890132485,0.6818073749184608,-17.105245719623962,23.692193070272342,19.332819709869828,forward
25737,1.0561574049055575,-1.4863720915861427,1.390255504003167,1.2057486621079834,-8.15410778872477,9.258913938862783,forward
25837,0.35891755612082776,-1.5595048400752245,0.8684960676997899,-7.856627437161328,8.918615985166175,28.595783950910427,forward
25937,-0.03048033232912421,-1.0999844178028404,-0.23403964202105998,-13.711562070118285,-35.10767093767495,11.473190404568278,forward
26037,-0.3622541531976312,-2.2117961976520717,-1.0045546434402466,-29.816039934815517,-61.304492669043675,-38.198177857849394,forward
26137,-0.9972665322586893,-0.07119403551146387,-4.13029772349894,146.4374526351325,95.60562071857767,-42.28430096276909,forward
47826,0.30526831045448777,0.8279571365624666,-0.27871874170303346,-3.032795236782422,-12.609595571127706,-12.720121692276853,
47937,0.19289138334635644,0.08442249652743339,-1.208900573465228,15.346166357380321,-11.458762483720271,32.0255241690446,
48037,0.009213665566791315,0.9042056789845228,0.3657733402997255,-6.532679790145336,31.28734122921172,35.6812292430376,
48137,0.3911804975504055,0.9326914764955639,-0.4150163868963718,-5.059677351758977,-10.647396628251641,8.939284137594635,
48237,-0.01631451739780605,1.1028764859825373,0.13025310433208942,4.797071519210797,12.664083405231484,7.935920810783299,
48337,0.439080641638115,-0.00820259567797184,0.2601338682204485,2.6349981893317094,2.4565782802853438,-5.496368057664681,
48437,-0.04718249277106951,0.635000907818973,-0.7836001084417105,-8.14990807615886,5.684685764592042,-13.67157131252786,
48537,0.19788570276862008,0.444921403555572,0.21531740589439868,10.297506527639397,9.968904419122792,13.154304864983516,
48637,-0.24697405199389905,0.3122799427822232,-0.3353384545475244,2.662884571052402,0.6622224317216143,0.6774198694291571,
48737,-0.4070070487681776,0.20645050108879803,0.21051672761440277,9.753042266820062,6.630704957566066,7.596785696792887,
48839,-0.13714786881450564,-0.1236249183639884,-0.1154617779135704,-7.21933407533235,3.55451710209973,2.0516270365658658,right
48954,-0.40522034801449625,0.34889322490841146,-0.20389526364803312,-1.44868728510623,-6.004062421974076,-11.652714242939247,right
49070,-0.4504746172359213,0.14526654906868933,-0.07785948475003242,-0.8988676223690759,-7.316934063477247,-22.30764030097718,right
49170,-0.9496050557650625,0.3315954686269164,-0.26212650334239007,-1.3550574511381084,-12.333363938072173,-44.19645340204918,right
49270,-1.2160291101709007,0.5482382779061794,-0.1508411343306303,-2.342531196619056,-21.389027668934656,-63.23425333600406,right
49370,-1.3236859134219585,0.29288755230903624,-0.10741934123337268,-9.786194297504013,-32.136436195881856,-78.98572824137482,right
49470,-0.9755144999820738,0.030275603537261483,0.4184107055097818,-9.275886958950265,-34.66261581135692,-85.67688891083196,right
49570,-0.3229145148474723,-0.14993892479389906,0.1432242295861244,-8.07354570746447,-23.279297889661315,-94.37022391282996,right
49670,0.6736514679264277,-0.43175621703416106,-0.32446284026801586,-6.58312628669458,-21.697275813724623,-86.6450818860596,right
49770,0.34345863263905047,0.2276521329410374,-0.15596154608428478,1.9971366411411502,14.163603626183592,-60.712909494461364,right
49870,1.2540500671379267,0.09092880968153476,-0.3557283316254616,8.539294599420348,-6.980192930790925,-55.36153482693183,right
49970,1.2275656725771724,-0.1961342742577195,0.19523674089610576,9.530553123475128,-15.483787838966908,-26.48945947881063,right
50070,0.667288874091953,0.07569149306118488,0.24380057305693625,-9.956681795603053,-3.270554975564212,-40.13117261938178,right
50187,0.41945882632322606,-0.002690115866810083,0.46288405348658557,11.139269286235525,-27.55277308351446,-44.35368777183746,right
50287,-0.05005930401613004,0.3558731469236314,-1.7980203123360872,-23.550048295907914,-13.86651259540284,-72.84240338486606,right
50387,-0.4282425828900188,0.7142686519317328,0.5361053570419549,-2.6128291028331403,-13.836263395116147,-27.04651092449665,right
50487,-0.7623674238640814,0.06225742647051811,0.04912088152170181,-5.398216104857482,-9.799198977683716,-29.324300465520448,right
50603,-0.5247323876995593,0.18219342718869447,0.08946867400109768,-5.259767316607678,3.5921121708387727,-10.69876135835743,right
50703,-0.3353139046281576,-0.3786654089681804,0.054182256564497946,3.2036075957538626,-10.214712682067796,8.39388840972724,right
50803,-0.5207891299664974,0.1984416744172573,-0.0581318709731102,7.9350764286471565,14.284104384841896,11.457602205335016,right
50903,-0.5305084503503515,0.15524711420461534,0.1504880831092596,0.6202461167951258,5.991802659300727,-7.709101327504577,right
51004,-0.40366690802741795,0.0198887956880033,-0.0010696750581264496,-6.188241034264409,-3.835050473671902,8.422325902336587,
51104,0.09986706269029527,-0.501165414955467,-0.09543898058235645,-1.9436805924888685,-1.5278226038819382,-5.892820411622548,
51220,-0.14329952331203966,-0.20992475307062267,-0.019888357296586036,-4.735100785984448,10.860943346425735,-1.0254159799288969,
51320,0.16373082837890832,-0.3552703587248921,0.04690495903789997,-1.2321251451352802,2.7674827283322117,0.7268880481015034,
51420,0.6195283942032606,-0.6707927905596792,0.40087972499430174,-4.967095418219924,12.520799696822955,14.381173325778825,
51520,0.7073636948488652,-1.086498913285881,0.48424540594518184,-4.362128914845793,26.07714315673176,14.73098317166832,
51621,1.334189625649154,-1.1335253067463635,0.20867256105244159,-14.672001073090675,3.0376350661396105,5.523242717614566,forward
51721,0.584775426056236,-1.353312405400723,1.058827500897646,-15.059016666936524,4.66420811815477,14.447395424876683,forward
51836,0.44390711194649335,-1.3079907700315117,0.2320084284543991,-3.544059442150206,-16.367146449608413,18.716074118385187,forward
51936,-0.0688725337613374,-0.9203037040874361,-0.9175824624300003,10.83054900461918,-27.885746513099875,8.285324260417179,forward
52053,-0.8429545069471002,0.07956687318980693,-2.00217685726881,-18.496346932785876,7.3281978991922445,-32.984673973811155,forward
52169,-1.590663217796385,0.2778761533990502,0.9418827909499407,12.867426674559225,-5.1273009202971584,-19.52324367638249,forward
52270,-1.3463957578800618,-0.4966667883619666,2.2631015836060047,-4.949140558439253,1.9839684633081889,-25.70002962963514,forward
52370,-1.0433509686939417,-1.0525732628084719,0.3676420567810535,-11.515327549105379,-5.383691707587451,-30.231107115582606,forward
52470,-0.2112577552400529,-1.4334826513111592,-1.2250976750284432,16.64449311104595,-1.4231565715972512,-11.966523015487251,forward
52570,2.03597099032104,-1.2541621492102741,-3.258413182404637,-10.74585722023196,-28.290792098807263,-26.749103997466786,forward
52670,1.9310674313008784,0.12529504353329537,-0.6200953073710203,-6.0990046127581925,11.138634932416359,54.609674433285996,forward
52770,0.3276781490527093,1.2564954144634306,-0.006945873615145683,28.88762939640861,-1.7249856192278765,50.7230782294953,forward
52870,-0.047721243856847284,0.8108003961868584,3.1322786193072796,21.73912438276929,7.871227820285877,35.199724812213795,forward
52970,0.06195500945784151,0.163930333006382,1.8791379220992326,-18.895247055787543,-8.008716966957294,-22.750929823394763,forward
53070,-0.18930417250934986,0.0733956372089684,-1.2578525281608104,-25.671527250228678,-14.579337604168405,-25.6748928259422,forward
53170,0.6113084820643067,-1.147956640746072,-3.386174469920993,-86.353992884012,-28.740582253767403,-56.73140781215334,forward
53270,-0.38211708379201587,0.7509415552906692,-2.471351535332203,52.74555529934402,-12.644275856638446,23.10007884848206,forward
53386,-0.4702183784300461,0.17181319521069527,3.5959342416882514,14.588828152020138,27.310962188781204,-0.6253587801931448,forward
53487,-0.4408382989604026,-0.17218363595828412,1.9165765491336584,-14.952788442322607,-0.08203532104776042,-32.1016227216823,forward
53603,-0.3439274191945791,-0.6078883714225143,-0.8165116134405136,2.4746268417236905,2.6577452805887902,6.634973825797324,forward
53703,-0.45896549180336293,-1.3712173337951301,-1.310450145882368,16.297697086127723,33.08071667882529,10.24322359921072,forward
53803,1.1188567299246788,0.4703669565878808,-2.635989724346995,4.516743907087371,-16.382236045032265,-9.934338539280649,forward
53903,1.8855171017423271,0.33008301823735237,-0.5294798014223575,22.103666946698503,-27.141044157704215,43.50185048421556,forward
54003,0.01794482201337814,1.2415766622729598,1.7745073348015545,24.440874010859535,23.999811130111375,52.56836653189555,forward
54103,-0.23599446588326245,0.4438134423136711,2.4385113420039413,7.729732767666246,-4.716480409646524,20.7822387857126,forward
54203,-0.04592681645443663,-0.23800883791297672,0.2854945194482803,-23.67785991829907,-17.300705243102218,-42.43018697325139,forward
54303,0.04189827332440763,-0.8764360669188201,-0.8188742509186268,-14.664720091435441,-7.837580600887102,-17.27212943916218,forward
54403,0.4049237031554803,0.3273487709678709,-3.9349551841408013,-34.54100770827943,-14.29739166409851,-62.30125632556949,forward
54503,-0.7281601069010794,1.019151031808555,0.5563204620748758,56.227114455163786,22.608182284836083,10.526629492215706,forward
54603,0.06741053491737693,0.20452742407172916,3.3739538707733154,-8.499664988082287,-0.9669468925909432,-29.407881490393894,forward
54703,-0.05270564467329532,-0.27556130058541894,0.5695376710444688,-23.955681277883926,-2.858102690032179,-18.824185767662733,forward
54803,-0.2783634254593402,-0.8328009233318269,-0.0022889877200126646,4.943868079286826,13.072872788377685,15.82062032543338,forward
54903,-0.22035781121440232,-1.271590838395059,-1.093139520344138,7.065911377987762,20.507917898077377,-6.249324696672303,forward
55008,1.6331934688813983,-0.6414562214381992,-2.5184961483448745,-11.40549213083605,-17.147010618851297,-10.170193509057652,forward
55120,1.398536133353412,0.6936997650250792,-0.5876894138067961,26.27405580295594,-15.704792269941011,43.70557453658953,forward
55220,-0.5396759820703416,1.0461670490279793,2.0142437271595,20.7483695851658,25.39935274954013,50.05997614411378,forward
55320,-0.6360246248435228,0.19338263746201992,2.453399699056148,-0.737784547705201,-0.0147416559825767,11.291141957525342,forward
55420,0.05331548366732895,-0.32452830671966076,0.17614333336949348,-12.946643208553033,-18.514409368045975,-23.96303056143086,forward
55520,-0.22720906534865498,-0.7447009073354304,-1.4490660048902033,-7.720218314152419,-8.997043632310847,-4.324023289466291,forward
55620,-0.32997097269762304,0.7773593143559991,-2.4974288103967903,-28.51731190753615,0.9146519760975638,-47.7550092803825,forward
55720,-0.943362800374627,0.8468756259135901,-0.6198153213858604,24.94647876416973,-1.9887350815752114,-11.451927171908382,forward
55820,-0.4035418568756431,0.3145217303596437,2.624680394825339,8.830971851510219,13.07899861428954,-19.206703681940127,forward
55920,-0.49098961950838566,-0.4417814980946481,1.3170733634144067,-5.7905618075768786,-2.3871502611458104,-23.78421279386534,forward
56020,-0.8059891965128481,-0.5036581085540354,-0.07222294016778469,7.751673896601266,5.419938667739062,1.3052675065228312,forward
56120,-0.29528643014431,-0.8028726719275117,-1.3022697620362043,11.013382923416666,10.335441398289648,-13.71559956569141,forward
56220,1.3532163976803422,-0.41430838475748893,-2.1343238125234842,-21.01805789699646,-16.599926126711615,-19.44371807632874,forward
56320,1.487726282674074,0.0015641805768013,0.48281741896867747,-1.4348228548647504,13.208935279286216,54.975714516190735,forward
56420,-0.3612439532417804,0.9302953751392662,-0.016020575952529908,8.815955680619945,6.187475199303721,32.724290087177344,forward
56520,-0.07519640302062035,0.27703999483585356,2.5096640225917097,7.750422264435861,-4.308727934593694,8.441080748023795,forward
56620,0.15704831840768455,0.1582050872273743,0.6020815117746591,-9.816266766645931,-20.402592965981196,-25.513669625678634,forward
56720,-0.14830511304698885,0.06124547294899821,-1.5182587835818528,8.858159419501455,-11.584786304096177,-18.93107652062614,forward
56820,0.6803482621513307,0.27076500621959565,-4.437071762341261,-71.72082485144743,-32.47787735249079,-95.16667861156681,forward
56920,-0.7565308997303247,1.0285779085844755,0.4924889181554317,64.76564321962344,-0.4445342176721116,26.435972267420258,forward
57020,-0.8343900922194123,0.5896718197956681,1.8617104019582271,-1.0796216418425875,4.809630102660335,-29.63774809181609,forward
57120,-0.19107750232480467,0.5056242940604686,0.9485825808495283,-8.685432473128294,-5.036733465676435,-20.767017709147225,forward
57220,-0.745344027544558,0.021770956172794103,-0.18276245924830437,0.3965988294990514,10.399917530280923,6.3052963893732645,forward
57320,-0.7239923927623778,-0.4674082529127598,-0.9079939653515815,18.83185265500607,11.019427640832127,8.072469952670193,forward
57420,0.12904760099984705,-0.04933920044749975,-1.85588622584939,-11.425839264373518,0.3719214894299276,-9.552365332589565,forward
57520,0.20636326119676232,0.6966147756889463,0.594963204202056,18.463760100255744,17.749600643281088,27.788569996683517,forward
57620,0.8113906171649694,0.506410768263042,1.1458470281809567,-6.978036725447317,-35.81108479953789,20.170588515348786,forward
57720,0.20449688280299305,1.9169184944391249,-2.0302964518159627,4.346735376003877,15.523988624874312,10.3317966385938,forward
57820,0.5653669612310827,0.6374579455822705,1.0427408739715813,8.775092366363053,0.08949863673732161,1.7421893716432577,forward
57920,0.5246023681117221,0.0845616127371788,-0.7837590983957051,3.316206465872696,-20.43838144968477,-19.360355617508734,forward
58020,0.7268659754373132,-0.1339402684122324,-0.8671995981484651,8.349480227291108,4.5662994908367525,-18.06083870338023,forward
58121,-0.5017794917332008,0.12631868749260902,-0.12711071465313434,28.08875851825287,-16.663426395425226,6.462920506831057,
58221,-0.028234617495257405,0.46842912039309736,0.6534019491672516,3.028881965274828,3.9698856649639467,-22.635277645273522,
58336,0.504796099608019,0.2917743303701281,0.16643500930368899,-4.589927249609943,-6.73020544584752,-4.941566732423355,
58436,0.19042802544012666,0.012445347814261912,-0.2898918776243925,-8.281165528986287,-1.0123290173140351,-0.5574963684774253,
58537,-0.14295699348468333,0.014823182861506938,-0.04718845215439796,-3.459587291033485,0.9511776933446764,-0.404722165578018,
58637,-0.3439788571208715,0.32732524396181106,-0.1244809506714344,-1.6680531110097643,1.409429705634524,-3.4582805904678966,
58737,-0.6055400912633165,0.3785445590674877,-0.07620411875844,3.6755907428746686,-0.6646326347249826,-3.6284376781658394,
58837,-0.7741431287884711,0.42382308594733475,-1.115262504824996,4.012286625557739,-9.763692239283404,-8.74261054799141,
58937,-0.006829005769826472,-0.368002999047935,0.2846989851564169,9.551053082495276,-9.309768112328113,27.195757388050602,
59037,0.11293048760397359,0.30102994223237034,-0.6443196480453014,-8.47936566586901,1.5103138408314336,4.194134862680628,
59137,0.4493803557258099,-0.03793020994365215,0.6318038653433322,5.057742273789748,5.110682216272871,8.018283500663545,
59237,-0.19710052547398954,0.3291726253941655,-0.42078795603513713,-4.621756784915848,-2.034999794805116,-5.853142135186651,
59337,0.29893855944368986,-0.3111854255437851,0.22554712348580358,-2.0361549505484944,2.8127423365370667,5.787159092709743,
59437,0.1007233141934499,-0.062194882628321645,-0.1133791264206171,0.5821644504385726,4.67929216404992,4.706207805134825,
59537,0.032929917438328266,-0.14033026171028612,-0.004968436062335968,-0.09595457956558527,4.9692785174333896,2.940989810374634,
59637,-0.07074161556884646,-0.1183525309190154,-0.04212532354593277,-0.3971401219907749,0.9880349949316518,1.6597854871845812,
59753,0.03863770062588155,-0.0894067146807909,0.11623977654874323,-0.8033587393272604,2.851976010346678,-3.253474593440714,
59853,0.06657697017006575,0.048287645567953584,-0.08640519477725028,2.0782340384776505,0.510528412567274,-1.9646659218269096,
59953,-0.05451039254032075,-0.08440671443641186,-0.10922317578494548,6.142757097034002,0.5413373148399387,-3.6375879972195406,
60053,-0.01760821047015488,-0.07654957119524479,0.038491350957751275,0.21683502737263294,-3.3124082403639346,-7.4308940622316175,
60153,0.11970774492025375,0.006513911938667297,-0.019220833298563954,-0.24864927479418542,-3.9146938944888356,-5.1765943955371405,
60253,-0.013243000997975467,-0.025005261918902396,-0.001772270369529724,-0.14064708196613068,0.9931775937681425,-5.966319650394232,
60353,0.04946991415508091,-0.024746026460826395,0.01089431897997856,-2.5348746597319036,-1.1228064733653451,-7.235880208596706,
60453,-0.028986513574793933,-0.04786708206832409,-0.20417408058941364,-0.25733468741707644,-1.6402560553568106,-5.331185909003447,
60553,-0.08236607545427978,0.10238222384899855,0.09439385544359684,-2.9364547782091575,1.8247377572915624,-8.545823406493234,
60653,0.2758811071243137,-0.30701047794669867,0.02046761848926544,-11.996644149727008,-17.35877892652025,-7.465132092993599,
60753,-0.22879041625596583,0.01996405288130045,-0.4612801254212856,2.261582569340415,0.30806132844399753,-10.65528464296936,
60853,0.14700520942956208,0.08505611825585364,0.3012847937762737,-3.2875143352733533,-2.9048651532978482,-10.407359021381652,
60953,0.275310394564271,-0.14380641338825226,-0.4603852224081754,3.0370378514740577,-4.877865826902878,-0.6638124250551992,
61053,0.013828326605260371,0.0424178767517209,-0.10047989735901355,7.097306769394549,1.8381972853813073,-0.55623956030929,
61153,0.12134550218991935,-0.0051519759356975555,0.5949328090637922,-5.247311185995691,5.173176739631195,1.437530704705543,
61253,-0.09068572164066135,-0.04627221409231424,-0.4607809437274933,0.8580478505681409,0.3951852204646968,12.925349240041871,
61353,-0.10347674108743667,-0.12864946852773426,0.18939795174002647,1.8934541560969451,5.184206214480296,7.345314353252296,
61453,0.09519954580329358,-0.04355155695676803,0.07197627193033695,-4.797315271586801,-1.6100465555446672,4.471628373185322,
61553,-0.045604324768111104,-0.062086453817784784,0.10080606057345867,1.7603935333286342,13.926812920490297,3.252798831599706,
61653,-0.017816519458591938,-0.013853753307461738,-0.17653145590424538,0.6230974539693417,-2.8616915275541976,2.0001278371107927,right
61753,0.09556165711395442,-0.08987491671442985,-0.1537386093378067,-1.48683645294169,-0.4676081441531485,3.178473353381862,right
61853,-0.07729571338742972,-0.11566373022645711,0.03318681480884552,-0.28616408881048044,-1.0100987471066145,3.37426926367674,right
61953,-0.2036607973050326,-0.04706774838417768,-0.10054185667932033,-0.06245661047234531,0.5031438041357266,-4.0299196126737735,right
62069,-0.498779981123656,0.37924072463810443,-0.7122533665865659,0.7052170318038166,6.952098228300547,-31.518416774117004,right
62169,-1.6803716919027267,0.6830497761949896,0.0014975450813770293,0.720412228355538,-3.1269600666616255,-68.83847136132371,right
62270,-2.387656037905067,0.62168111525774,0.5177800112783909,1.1913066539948147,-45.25360959121624,-102.19617953174969,right
62370,-1.9613976876348256,1.1118757849961518,-1.262321782529354,8.047955549965371,-69.60735941657039,-115.42180950091472,right
62470,-0.48609154526852066,0.7288868137404322,-0.573336478805542,-3.407148086793889,-41.35475319786537,-144.2015082480588,right
62587,1.0123454434469341,0.5346510665804147,0.49681028848588465,8.20459569329586,-28.90456826555024,-109.30642694830048,right
62703,1.9534432214990256,0.5476844434157013,-0.3927046018451452,-2.7999607047224457,-17.515366135884673,-64.84082994200695,right
62803,2.753648135522008,-0.966541139127314,-0.8317793251991271,15.585689138741621,-35.96439522564799,-39.648404603561524,right
62903,1.1301244122616947,0.8595406078279018,0.08408756548464298,20.144463041773488,15.968849090800996,-29.088925316532638,right
63003,0.8440838032379746,0.872149621771276,1.3447311856687068,11.359230405813907,-16.125774394529333,-43.11524128662533,right
63120,0.8781869291741401,0.9335098071411252,-0.8041957372248172,-36.34714878145175,-14.341563351234628,-63.6500137809719,right
63220,0.12733012955747544,-0.06430997508615255,0.5499859983563423,-33.26110538989991,18.35630414913852,-22.52134325972854,right
63320,0.10728365908972919,-1.186872866052389,-0.22838965343534945,-4.23417172404795,-29.12351680958417,0.4902097203643967,right
63420,-0.377354545565322,0.13146964051499963,-1.5423030915141105,16.267608395286523,6.493217945328764,7.235341477425921,right
63537,-0.7543833663076162,0.23241584021151065,-0.339130832567811,47.420493935591956,-6.112046858978331,31.707080259371097,right
63654,-0.28586452180445193,-0.029750995141267774,1.1778589539915323,-17.845872159632417,-3.368598285674925,17.20546508531556,
63770,0.542437555738166,0.5263631307065486,-0.10693711067438125,-8.830381040147012,-0.624735098544558,3.8607307042906807,
63870,0.05608341401070356,0.06883592807799577,0.009854454538226127,-8.934086363636254,4.135346997607506,15.916091002104526,
63970,0.05780355233419686,-0.5927608718521893,0.06221300280690193,-19.245536722466234,-22.128422967345216,18.039926371688942,
64086,0.19132614332363007,-0.5828367130786181,-1.1693775413721799,-3.137501182985071,0.14848457729637485,8.10336289828616,
64186,-0.5318934019027277,0.27885391239002344,-0.40452831062972544,32.34329530508486,11.26521114434139,14.237197206943188,
64286,-0.19577366078440098,0.5851990582957863,1.0530518401056528,12.059471644807369,7.793964720394693,-12.304817162436105,
64386,-0.029440175626426934,0.043241175833344456,0.14143208547234534,-11.104377264860513,-3.0939348213641447,-12.259105267642148,
64486,0.06513875406049191,-0.34274025523662566,-0.15048282241225241,-4.594482985786341,-3.6769956274095756,-4.0520677817180095,
64586,0.18157215348519384,-0.23782617482244967,-0.23781389986276624,0.27088244767707603,0.12888932485656363,-4.369075644118519,
64686,0.22261987439487127,0.03448445340394973,0.14607202023267746,-0.6498388185087052,0.7509650518951801,1.782336583254358,
64786,-0.1631817796614021,0.12872984028756618,-0.07733049243986606,-1.3488255438507064,5.936671506754499,2.7465595110269354,
64886,-0.19770693040192125,-0.1022854854762554,-0.05304828409850597,-3.5793612748754167,1.62656291345311,-0.7006885096623923,
64986,0.03826579857356846,-0.0783839470155537,-0.02590951728224754,-2.5770916321049295,1.1381238129093334,-2.537246442921191,
65086,-0.009171440710127354,-0.018153642458468674,-0.23181436718702314,0.47139852561653534,-1.4469026847421527,-3.4707853861777207,
65186,0.14331716856658458,0.023094167600572108,-0.254672095683217,5.473055341366958,0.9853457146676651,-4.6786889729688435,
65286,-0.08744118676148355,0.17235270891487597,0.007097849306464195,13.556868530701252,0.017412800226687203,-5.2723523670402495,
65386,-0.04704882448799908,-0.011101824250817299,0.23224515981972216,-7.29656387805133,-1.591211882021534,-14.563945772873781,
65486,-0.05448825377374887,-0.2649246096283197,-0.10599661495387554,-10.321234604816022,-8.905271503075264,-7.756273175233623,
65586,-0.23866711915861813,-0.14595160872340202,0.011276011773943901,10.578749811998428,-4.956255908007114,-18.15548804980368,
65686,0.25878939480893315,-0.03151274411678314,0.1600350791335106,-8.635152889326891,13.604970991704713,-4.715036251523889,
65804,0.6340061976931989,-0.09715396780669688,-1.1884522441983223,-13.921842250321822,8.356988312736245,1.9009618146552585,left
65904,-0.2407191928502172,0.13346885150820015,-0.5367664512991905,3.8711326555097867,-5.153424686325164,5.434262428202225,left
66019,-0.13430968624651432,-0.0413093309879303,-0.05461421824097633,6.957787348992344,-3.6287360720552044,-6.012758960334795,left
66119,0.15350867303945123,0.11860767472386359,0.11279694261848926,0.22864645215999482,-3.1981995800350935,-5.397985585972995,left
66219,0.185356421264261,-0.11149462784826755,-0.1638771415144205,-5.070865201619458,0.3182064005172879,0.005239342062781578,left
66336,0.3171330819018185,0.18180384334921837,0.4777689034074545,-10.598105714332597,9.940076751957106,32.21773252247793,left
66436,0.5484250326499343,0.2407259879171848,0.4173094662696123,-10.876774017374533,12.414326439172566,60.747839081876805,left
66536,0.6802029353965073,0.6204432440258563,0.1523836875975132,-39.91677981152425,47.3571883272697,99.06265266508792,left
66636,0.9179379978694021,1.0819579088553786,-0.14189736489653587,-28.681494287257625,18.83100571154899,143.74577070587884,left
66736,0.9621613166078925,1.0029182744100689,-0.08789163394272327,-31.120086971911032,27.62527212645956,152.4835770695628,left
66852,0.8000154558654874,0.9298347718901931,-1.7836790677726269,-16.98502243740069,42.91517138545731,97.29978084030763,left
66953,1.0219188890866935,1.044931369753182,-0.17381050650775431,-4.73899868956641,23.769517641866056,98.79686268372605,left
67070,-1.0904783383108674,0.9528088202424346,-0.0372615169018507,20.261476135086856,12.571256011769133,104.6917394091756,left
67170,-0.9350717957608401,-0.07285904611423612,1.4677847338855265,4.181130182500924,4.898002932123368,71.09138193829574,left
67286,-1.0630134082801639,0.29632088775858284,-0.8207832994103431,-37.061241644081996,45.821731065999565,-10.804395356513554,left
67386,-1.080070633804053,0.07663710334822535,-0.9445973106056451,19.601435682000794,-16.28122096230236,21.80625489702676,left
67486,-2.532856974391639,-0.12368687768429518,-1.4091566038280725,-11.538095984703617,16.516305828250445,18.00005855750358,left
67603,-1.2674242202349006,-0.44370355219841,1.2638625822305678,8.939242302685969,-11.770699784435694,29.131105149752052,left
67721,-0.6897703166216611,0.32733488857299087,-0.7369868258267641,5.8048608086043005,8.02489427000647,12.345610467254007,left
67836,0.4430258721325546,-0.3567098900087178,0.4613064289063215,4.772561385374206,-14.85460276545638,-36.281514078622514,left
67937,-0.567063536015898,0.4154045094311237,-0.41132922281622886,-3.3651157429718648,13.947121634213685,-36.27013839855986,
68037,0.4246160629559308,-0.11694850933998822,0.49256549052298065,6.320510208862644,2.0440224746987026,-5.930305770448047,
68153,0.33871341087333856,-0.2757104997977614,-0.3917635216027498,13.58134707491293,-4.618254605418924,3.3287481872927205,
68253,0.7064448264382779,0.11959376315176486,0.31002865672409535,-11.471377843117285,6.734292887178949,-9.10259822951787,
68353,0.131679447340779,0.13911854783296584,0.11673954276442527,-4.137247070857239,-5.046600954592988,5.272538489695132,
68453,-0.516053114420548,-0.3314524068944156,-0.6845405992746353,6.197201388681819,-1.1780607827600442,-2.3504006417599683,
68553,-0.4894374216303229,-0.1471951790437102,0.139504332280159,-0.5904455211986841,6.73246026204727,-24.33181638038194,
68653,0.07518697760514914,0.0787578948944807,-0.012937222984433174,-1.1432682260148224,-4.769370833258164,-17.66970109037028,
68753,0.427319038304314,-0.01850567076653242,0.00317278481721878,-2.496164349167445,-1.633371971725378,-9.926401859465095,
68853,0.19274558166749775,0.00213233585357666,-0.08601005797982215,0.5064663176409675,1.0071599514945107,-1.6376353971496413,
68953,-0.0219991389054805,-0.051279374729841946,0.18125030111968515,-2.206793566582923,-2.964699958304687,4.212606682404105,
69053,0.03778459092788398,-0.07255684829726815,-0.13315408647060392,-5.05852091535513,-5.012609664414773,2.6875479572584946,
69170,0.07765406183842569,-0.07243351417854428,-0.038834465306997294,-2.247076741647189,0.4426638664174388,4.435339151238221,
69286,-0.10188512451443821,-0.05839592873677611,0.028111411240696906,-3.7503574086242133,1.6622780793448126,6.182069958349302,
69386,-0.1256339200988412,-0.10130275804921984,-0.2429576924920082,-0.8841129196579673,-0.3968774798728468,4.322386605386427,
69486,-0.09888137612119316,0.059203299596905706,0.13593641066551207,-0.5245304604483587,1.4212585260599282,1.0178200625199023,
69586,0.0012639920538291334,0.029356881257146594,-0.11263736814260482,-4.255960454387115,-3.0483721235148704,-0.8817687773904779,
69686,-0.052454373325966294,-0.09923281990736722,-0.2577320677757263,2.7982324534190206,3.210520814410973,3.485568476862567,
69786,-0.1602889808293432,0.1118183068446815,0.0900339066684246,1.012215785584201,0.5071113969915635,-0.6876958890354413,
69886,-0.030078583127819,-0.037961627995222805,-0.08778700452446937,0.4884060168149844,-0.18236523708633387,-1.1192815621450898,
69986,-0.11381229367349296,-0.0630519378490746,-0.00497837293446064,2.699441237594191,2.347052354962781,-0.5966889544303104,
70086,0.03216671451348811,0.023544833977520465,-0.128959557390213,1.6991267364736198,0.11661264679284751,-0.004424922045536893,
70186,0.1509952289137989,0.012395517323166131,-0.03290390621423721,0.6429469441927508,-3.699628312998059,5.393806790861416,
70286,0.13806757747530937,-0.11784838078916073,0.009283376652002334,1.364641807369223,-0.6167386012129127,4.062684457009148,
70386,-0.013138736905902624,-0.10869637543186544,0.05694295344948768,-0.6333530363689687,1.102779825110339,0.812341505302885,
70486,-0.057165765887312585,-0.15642697163894773,-0.06714169138073921,-1.0383092426477654,-1.1187860532651464,3.5580538594293274,
70586,-0.03590184592120349,-0.0596197714433074,-0.055944590061903,-0.16331844083274671,1.3792593726884024,2.981937221335684,
70686,-0.046448082115873694,-0.1419860660932958,-0.019092823004722596,-1.9812351069797143,-0.28039746147985917,1.3265945587627843,
70786,-0.014876228222995995,-0.09421893726810812,-0.16022271066009997,1.3325421594259845,1.4740888653512132,1.3173183080962607,
70886,0.003953669529221952,-0.07447261879071593,0.040356560307741166,-0.27685587499307535,0.8727772068741263,-0.5508726858080997,
70986,-0.004398892546072602,-0.09212634890303015,0.030800796455144882,-0.9395297662105716,1.890147277321601,-0.15404918043795185,
71086,0.015369747360981999,-0.09971373529210686,-0.017272037318348882,-2.038803569842578,0.3239297255157883,0.29730924998864877,
71186,-0.037540516506321724,-0.06465703495815396,-0.05431669659912586,-0.880337959481066,0.8679526387208644,0.7594382217256983,
71286,-0.013709851324744522,-0.0910620806723833,0.00468903459906578,-2.4504857515456924,0.6005548415005377,0.7773861445954935,
71386,-0.09959431016352027,-0.03456365612000227,-0.022304770788550376,-0.347810948340209,2.058468538236691,1.5071164585262213,
71486,-0.09537873829510063,-0.050091772380471224,-0.12366028193831444,-1.1502813361885447,-0.09966403929556332,-1.0928177807624637,
71586,-0.014659297536686062,-0.03308057795539498,0.009120879566669463,-0.5169257918594901,1.2819180779583195,-0.03248571371390291,
71686,-0.020329853986389933,-0.0850834446541965,-0.06530570812523365,-1.082587011159431,-0.05478791553011432,-0.6823365384145085,
71786,-0.015840031753852964,-0.02112184461429715,-0.05249298830330371,-0.37746656249934657,0.0177690189377925,-1.0198033787001448,
71886,0.009088694330118595,-0.01889963852018118,-0.08258534422814845,-0.12374643253538203,0.38102805258425865,0.15807896536783292,
71986,0.007023541961237788,-0.0238657364949584,-0.041296471506357194,-0.18526097049015483,-0.5183041026896574,1.416363308137439,
72086,-0.03095938455034047,-0.005967822363227605,-0.07381459327340126,-0.41098366145834786,-0.20313662942492278,0.763289221117969,
72186,-0.06878240779247134,-0.05130626273676753,-0.050316228786110875,-0.8922675785575808,1.629310677211865,1.3771235511905981,
72286,-0.018882723917998372,-0.03714534317627549,-0.034898294901847836,-0.19927148940663603,0.3660120417765443,1.8384164917649823,
72386,-0.03355725555643439,-0.051528819446265695,-0.08750058879852295,-0.31074308482772667,0.23105916312344893,0.515039485709803,
72486,-0.03058711717184633,-0.006550736817717551,-0.046123453271389,0.2050036989871428,0.6100819948973535,-0.38967288427852625,
72586,0.016904994104243815,-0.019023995552212,-0.11021744751930236,-0.13964312419941813,-0.7682264340316833,0.07231398750727532,
72686,-0.03221055365521461,-0.0676081398487091,0.012893968364596366,0.8572558687895367,0.14284262759853275,0.893286130517559,
72786,-0.013311755385249853,-0.03454246720150113,-0.07303484107255935,1.0340813555515276,-0.22118640482267318,0.2527573934561101,
72886,0.05215973776094615,-0.07985533474236726,-0.027796938464045524,-1.813571678659061,-1.9221473539133456,0.15318676233353196,
72986,0.015728388072922823,-0.027181436914205548,0.002143441769480705,1.1762777832215536,-0.3529515728251427,0.992087965152114,
73086,-0.034487595209106804,-0.0357156026341021,-0.07241992404460906,2.056862163121269,0.5129334395679118,0.2484168349189934,
73186,-0.07788808979000895,-0.07457447172999382,-0.0030851065337657926,1.0922021032418106,-0.2919719107195333,-0.13654008388211672,
73302,-0.018850538681447506,-0.004596387879550457,-0.09305880744755267,1.8447963153365974,-1.9519799126606687,0.6693140357099387,
73402,-0.1853929538823664,-0.2922279193565249,-0.23091595704257487,4.074348285677415,-4.467835910648672,-6.008136629813989,
73502,0.05690200038459152,-0.0429943614654243,-0.2938479217737913,7.73428508874806,-4.2514597866109,-14.728693350749074,
73602,0.33261012556217606,0.15904504518285392,0.003188566908240318,5.804878310964049,5.614373662841815,-6.751903249293357,
73702,0.4133522530764341,0.2499590956866741,0.5569686968505382,9.77804502805054,2.9488517849961418,2.6009029522120635,
73802,0.20015476194545626,-0.05917348898053169,0.25911855369806286,-2.4523230724324256,1.4964648852372924,4.7647356961326635,
73902,0.121480892072618,-0.1826777035742998,-0.041869302958250046,-4.9657844487861045,-0.10802443763360355,6.829363570896826,
74002,0.012523966008424758,-0.24497531592473387,-0.16628946335315703,-1.5864089783745456,0.19827232077647045,5.9592158267705955,
74102,0.19259313105214387,-0.4030078230641782,-0.1819447131246328,-3.3901838178862813,2.159370709401878,4.562879273609869,
74202,0.3902601313024759,-0.18107392163947222,0.13351415195465088,20.79753328681155,-9.673812072447914,11.497190835538056,
74302,0.39162031373977657,-0.08280950837284326,0.4167734596967697,8.094316312730479,-8.749832619265051,7.969836115106998,
74402,0.2350736795102246,0.19580518843382597,0.26572189748585223,-2.274755656371842,-2.8907678562943535,3.511499076603109,
74502,0.12337354655195958,0.20386019233465194,0.012532733836770057,-4.692241775829441,-5.962559204369317,6.189925956555286,
74602,-0.1281311802746728,0.07038359591141342,-0.07224339843392372,-2.8026202096305193,-7.570649977933833,5.994426732602481,
74702,-0.2651952067306265,-0.0748484663657844,0.027252748584747313,-3.875667474231852,-7.958678147324135,-3.5655632255349334,
74802,-0.38215653901956975,-0.06961173475608229,-0.03648059565722942,-4.3661143302264955,-8.67651651494049,-17.1741828189169,
74902,-0.5672189457733183,0.06938245604485273,-0.1874748747229576,-7.1656752554390835,-3.9119199839121643,-28.835016449232,
75002,-0.6541214225482195,0.006624386575818061,-0.05846037227511405,-9.4760200393681,-5.498464925739875,-29.928478508932265,
75103,-0.664619216491282,-0.26097631039395924,0.053930912151932714,-6.026579848120316,-7.1652125101228155,-17.61270145419923,
75219,-0.16862524935696274,-0.6663910484693945,0.24163550397753714,-5.810178964646802,1.0063625269089116,-8.317990493896412,
75319,-0.36360739443749185,-0.2351423425659537,0.14540975693166255,2.4242021164024252,13.756534596934587,3.0943757954524336,
75419,-0.48843642789423464,-0.06560133007094264,-0.953829249331355,2.175398815506371,8.763080624933938,9.00706949623878,
75519,-0.17300784835536032,-0.13846519849076866,0.3150532068878412,2.3345814967553955,22.335087416156878,9.757223196365757,
75619,-0.27585732438992705,0.24386677016094327,0.31244156308472154,3.9903305555839106,25.039984053907204,10.337333360689742,
75719,-0.03091156335324049,-0.1311962304010987,-0.045913025391101835,-0.3087036330302432,12.23748942646635,13.402098151656055,forward
75819,0.20267207852862773,-0.09775807117968797,-0.08923486524522305,-2.981866785009868,10.714929269896496,10.47909308313971,forward
75919,0.23208156675584612,-0.024276216991990802,-0.29810557921826836,1.8771317115279071,15.29825770299456,12.316823781223341,forward
76036,0.29639921369180083,-0.04958002346605062,0.1672626922994852,-0.08661609680437789,16.2481628467195,14.015917860854993,forward
76136,0.708806733264029,-0.2531245739802718,0.7228940030664205,-5.499763515455824,10.008624530467355,17.966857007948146,forward
76252,1.1420452978104352,-0.7102838200792669,-0.011890344280004501,-16.701940124607635,-2.7832730584762233,11.19471420059675,forward
76352,0.5083664323754609,-0.6899633549757301,0.8717845878511666,-10.847037935049237,6.84379405306577,17.412944034185745,forward
76453,0.2820934788331389,-0.9274906929820775,0.47141222785711284,-16.54331068868138,-13.277430123830397,2.8677018805803973,forward
76553,0.18984357661567627,-0.7464673324860632,-0.8678162687420845,-15.407979569368937,-23.532708153152544,-7.4409224874804885,forward
76653,0.1887636724244803,-1.4536463184177875,0.006648351973295211,7.231861496043799,-28.438571779236952,2.9245559483447603,forward
76769,0.6008497049573809,-0.5965079494260251,-3.33774507779479,-23.70097669354498,-43.09676904001503,-48.14323040261686,forward
76870,-0.23669307913929222,0.2323000318121165,1.4190969830840825,24.526244545295523,25.05537759274912,10.113560995554492,forward
76986,-1.5387341469861566,0.43089740824773903,0.9455833990335464,5.85221194879906,13.672754642801564,-3.8479778873366204,forward
77086,-1.173623362248391,-0.5939104802787304,1.354775609821081,-2.7459964473072325,0.46787414800480875,-12.887620982614015,forward
77186,-1.14391562172696,-1.207896218728274,0.9970528895080089,-5.966742268349127,8.491287761065268,-17.31916553688147,forward
77286,-0.03927358737662434,-1.3794279666490852,-0.31298692200779915,4.435103936598678,6.668340153666483,-17.227263634051656,forward
77402,1.6203665744036435,-1.664586532141268,-2.510941787442565,-31.632631197417957,-14.658175062663277,-5.5523879885766565,forward
77503,-0.06359108622707427,0.12189078804776071,-1.372263920238614,21.863397967170382,41.668494522295326,56.025582893513395,forward
77619,0.24378566774874924,0.9118276982955634,0.3861486043304205,23.88057993286505,-1.5028401197755588,29.660195508523337,forward
77719,0.32413623866215346,0.6322793739005923,2.6839322097390887,22.864099227752703,-3.2364507738212804,25.81592598701921,forward
77819,0.40866416832543906,0.28982071208432314,0.8107821298778056,-12.79334132017939,-15.489475678998236,-8.233093803834091,forward
77920,0.29905674246326086,-0.03935746626779437,-1.9032593869209289,-5.353422016733247,-28.192056591712852,-9.407159779703324,forward
78020,0.036269564988743515,0.20067717838436364,-3.2860686665713783,-27.48129856894486,-25.017109750376832,-43.342652435040904,forward
78120,-0.785026122656837,0.38984249041229485,0.6274509308308363,41.367354896884045,4.392715355722756,10.321489883136252,forward
78235,0.32311745354104787,-0.3713482178226113,3.0908868707329034,-11.009665592960886,5.781376910690504,-24.955296538388215,forward
78336,0.022116152881272135,-0.5561239165894687,0.7245218965291976,-7.413232900585257,-0.2354588988464214,-9.033354625485927,forward
78436,-0.21732728441208599,-0.8000549841582775,-0.5320072740733623,9.242095451805273,4.923278474033823,17.55808726159581,forward
78536,-0.14907799711562691,-1.1153859850741923,-0.8995271657794713,-6.988690539892067,34.71095989030227,10.656205864733664,forward
78636,-0.24724033824726938,0.19188275429308413,-1.0453922652631997,-2.5051949264672597,37.75077997664605,28.42447768388463,forward
78736,1.1389845220003276,-0.0428276265963912,-0.1818938597202301,1.2494409553417318,-24.66554454587064,19.859808077924036,forward
78836,-0.010228840808570384,1.0335590579979121,1.977568485713005,23.221584498722002,15.777620869513564,43.430164233781696,forward
78936,0.38733869089782236,0.1548503699719906,2.24824595977962,-13.678269166782703,-20.09259117012183,6.3946805137202825,forward
79037,0.7838461921572685,0.08564020175412297,-0.7231909401863813,-27.55351074394482,-29.26619604625115,-17.310110413589324,forward
79153,0.6345464420497418,-0.37331586463376876,-3.2602982654988764,-49.18322915658885,-35.897985296347954,-34.03523561533457,forward
79268,-1.082154235145077,0.539607812204957,-1.4399223289698362,36.87800474412348,3.356461466406636,-8.939613694222087,forward
79369,-1.105375901582837,0.14602350491583346,3.459098836356401,15.434456797686492,35.228531135038324,3.398531589712506,forward
79469,-0.21653321142494678,-1.1081496040798724,2.3900913022279737,-10.585019071882853,-4.416772135753187,-28.428389674731754,forward
79570,-0.24098540603835134,-1.1384772300653159,0.16427987709641456,2.514113872862827,-0.7164755314335247,-9.399971005601886,forward
79670,0.7486494988307356,-1.6781725744232534,-1.8951392088294028,-25.17043383686528,7.952045179866406,-9.840657372172048,forward
79770,-0.435936206132546,1.065859883752465,-2.3391794456362724,28.614317669223258,61.52835211909085,37.0189661882142,forward
79886,0.2434531478587538,0.8024249281600118,-0.09333528630137443,13.69381296978636,-13.186750824862015,34.667031528655336,forward
79986,-0.16558325131256132,1.2922608475886284,2.5980735429286956,30.45838166021478,15.31831967613418,34.68030600130725,forward
80086,0.3428180331805721,0.2870131073176861,2.9130618678867815,-17.62236787942209,-11.659295130204553,0.7669432122413672,forward
80186,-0.14050022971602155,0.12294205066636205,-1.525066125509143,-29.205909381542032,-22.684149356332256,-20.496325359508575,forward
80286,0.5661765605809167,-0.2640719383217394,-5.167573317801952,-87.57346168861525,-36.745710810089506,-64.10620894582622,forward
80386,-1.7282012184396385,1.1311054591882974,-1.3610001834243535,80.85080018670601,-16.09497365646716,11.468083984390047,forward
80486,-0.8205331240415573,0.7884082393757998,3.6988223692327735,-5.157324724341242,51.71490365925119,1.7079340519649397,forward
80586,0.425586880749464,-0.7412910988919437,2.4333272173643112,-7.229598995881233,-21.274951556964396,-35.981457038194684,forward
80686,-0.7154760549601167,-0.6290617270283401,-0.8871095827549695,-1.83576125572514,0.33395334828789935,-11.164390722002832,forward
80786,-0.05617496475167572,-1.3682267736770213,-1.479870892998576,-7.6291846991208425,23.41136471990539,-13.265747939028737,forward
80886,0.6396833665467798,-0.04973141463547945,-3.034026919391751,9.100207663308366,7.66978078222646,2.572224695434472,forward
80986,1.2412144048318265,0.21514380289316176,-1.1183043567389248,28.208580526862402,-23.724523770708597,14.04489493840877,forward
81086,-0.36088534906245767,1.265407327454537,2.572397249880433,24.332560871001473,25.775260748248247,26.30663751284419,forward
81187,0.17304500202797352,0.4701148815229535,2.534481652984023,0.03201856612727106,-6.72463628035302,1.5381718345783884,forward
81303,0.12034516604095696,-0.060163084539771074,-1.7978168987184762,1.0139551359450272,-13.588108962191244,-18.186401485987158,forward
81419,0.28944208803027865,-0.5033109025515615,-1.957243490564823,-24.519059186288672,-36.05927679850322,-26.44811975885913,forward
81519,-0.21319504344556478,0.5290346880033612,-0.8312146770536899,24.166097208097213,-16.50811130879372,2.2053752351130873,forward
81619,-0.9653519293427467,0.5123575478382408,1.4331553190529345,-9.527213160970993,10.995112167386882,-7.568695690057563,forward
81720,0.06646620327197014,-0.8324218608863652,2.0653437997996806,1.1899559840864447,5.548592964719068,-13.306647111778773,forward
81836,-0.23653383345697074,-0.7991577430576086,-0.12608370969295501,10.293438296215008,6.077207344682566,-4.659108101278886,forward
81936,-0.09565554594248532,-1.028097431591153,-1.7844938912868498,0.10762573868101728,11.277311678229713,-10.452905284088235,forward
82036,0.3701010307731107,0.34780893680304287,-1.0389210234224795,15.123732709322393,12.166925888377303,3.8813053685048744,forward
82136,1.699358716445416,0.4974810273543,-1.1002502291321754,5.667421607691188,-28.137602908554925,15.79806191815212,forward
82236,0.4690941236404702,0.7394267663247883,2.624244341495633,0.1839076592195667,27.238434117532133,35.14247416659075,forward
82336,0.04550227089943364,-0.057720075301826,1.9795505994409321,3.2090527506262436,-9.56298969184352,7.651150587491603,forward
82436,0.328129619147256,-0.19450550401210784,-1.5529992575734852,26.666482614171727,-7.191965507328109,-17.546971128721612,forward
82536,0.9174220842365175,-0.08188567152619361,-2.2591876250326632,-31.11131359392215,-23.50171446224632,-22.014898393150432,
82636,-1.123246489316225,0.9219994020894169,-0.6804109521239996,44.674754474152245,-6.3917281644515445,31.34434940311923,
82736,-1.170734728134796,1.061128471316397,0.972442179864645,-20.570359487469634,25.447244328452967,-24.318576058675873,
82854,1.315384679675102,-0.702247520878911,1.340383511853218,-16.874426306812552,-6.764185636968333,14.986736190044864,left
82969,0.5122950405286625,-1.0103928480744362,-0.7629740845203399,4.433824983676594,-1.6234329792659519,33.24940186075709,left
83069,1.020195572425425,-1.1050970846414565,-2.465949968549609,8.872927142260668,13.689539832686872,42.55918534101084,left
83169,1.2993994672968983,0.42187399770617484,0.355341378134489,6.965586998137676,45.45991887019106,69.43363355503111,left
83269,0.7723625289820134,1.1174570922598241,-0.6683966892033815,-13.288089487803848,9.665625236954009,50.57604474723243,left
83369,1.0412835147701203,0.4993471134871244,2.9913457155287264,-7.227891448588729,15.688850608418202,57.68570135242001,left
83469,0.8664146583158522,-0.3124816028341651,1.093494325131178,-6.973920682698737,-1.2971598585346145,36.197454940507164,left
83569,1.0942724698968231,-0.515541876962781,-1.1392992139726876,-16.154500462631113,-13.62839768678421,23.171952929118103,left
83669,1.1127110667765139,0.9454059966400266,-4.885254505780339,-33.638360643421805,1.217291681805305,-2.2611622992630473,left
83769,0.15233268806263803,0.5221244702234864,-0.3560883971095085,24.088156211930908,7.260343384882753,62.561370419731084,left
83869,0.22792663903348145,0.5516879799686372,2.609664027479291,11.026289419627052,26.91336150926913,37.82965841627594,left
83969,0.15366497784601524,0.00015197569131851195,1.6290455554217098,2.5639027502610463,6.0129224579880525,40.33014286009342,left
84069,0.19582619468923657,-0.46250104551836846,0.062114218607544895,-4.601630778752759,13.929137746129042,41.72463184708366,left
84169,0.611066343871504,-0.8393827859401702,-1.7006757903933525,-9.370074413831095,38.587710376404395,34.176787870788495,left
84270,1.2490624879837036,0.3766200207456946,-1.830648908740282,20.014824343779356,54.543588937971535,63.81430032107822,left
84385,1.3617737981453537,0.8293919916711747,0.07898819651901721,2.7047045386799207,-0.2641814184514853,71.41716147113783,left
84486,0.7316921534847468,0.6224423088885843,2.2022575310647485,6.391663704541252,13.2149748740598,61.62456899392881,left
84586,1.2184095755666493,-0.5027420166224241,1.0949328335016966,4.810081322032379,-23.6174486026376,28.343913895077037,left
84686,0.8376867956772446,-0.1664613127887249,-1.0938263335645197,1.3115187304389795,-10.150684781240804,9.653828646483749,left
84786,0.7906737000897526,-0.5723541897699237,-2.361782322588563,-31.99797801612194,-36.89280917914948,-3.3569064959197443,left
84886,-0.03631444531008601,0.761316818832606,-1.8989105440616607,27.26610662895444,10.292377055572718,29.530763423751594,left
84986,-0.39275757414139806,0.6294669468283652,2.296335160166025,4.8251205448111,34.80700601041099,12.707964809327876,left
85086,0.027223985997855197,-0.07681435961127281,2.116729703643918,6.099788803852275,17.76336859710054,-5.1824914101118,left
85186,-0.13017722608428448,-0.1933311995357275,0.5772539445102215,-10.593943567807122,18.911419236194842,-5.032963628141411,left
85286,-0.2992243541151285,-1.1802832585290073,-1.333990595945716,-9.203194963161112,26.271701095239575,6.462223827535715,left
85386,1.192765285091847,-0.2916657554291189,-3.265499925795197,-18.214837271049216,-9.466672071715292,12.028355010496083,left
85486,1.0485782018229364,-0.2487798227742314,-0.10071779776811599,19.353998418938744,-5.976663971892216,15.573594581268821,left
85586,-0.48911973398327824,0.7641879903547465,0.970289970266819,-29.776062837603433,3.899642718879066,15.744890603010864,
85686,0.43757118692323566,-0.07315145318955182,2.141284299185872,13.813166256664102,4.4591577284213475,28.609591178317608,
85786,0.5936460571888834,-0.6511765282027423,1.2757447432041167,-3.5086423499827513,-8.306264766638792,15.294229598931544,forward
85886,-0.7363461898356676,-0.6679381317809224,-0.9355512498408556,-12.151582722180516,-14.572782330112485,2.8002413828086508,forward
86002,-2.428171880427748,1.7439195965752003,-1.8145143510192632,35.679648054244744,8.635999832783973,6.6918300279958025,forward
86102,-1.2174930452436208,0.45585459324121475,-0.022327567142248154,-24.02919972656265,20.65741195598874,-43.39846191074908,forward
86202,0.08574201816078275,-0.42070641523152585,3.2600615341335533,20.39910273931532,8.314285116271678,-23.938544333256363,forward
86302,-0.0681177698712796,-0.5780357425376772,1.4583154792726039,3.0850135270910504,-3.1162486224957533,-19.182273802826284,forward
86402,0.3806700267888605,-0.8170707086279988,-1.6393044991075991,-2.768519636425584,-11.636834053118967,-2.3246999205736794,forward
86502,0.6691903237991035,0.22027561282366512,-3.7698604835301635,-14.773437920001827,2.1855617101045266,-11.218448254188896,forward
86603,2.35521799563691,-0.39105084328874945,-1.097706974390149,-8.860238358330077,-49.09747271646475,32.964572727083805,forward
86703,0.3809903447844088,0.6685473497204483,1.8646616529792546,9.407169171213432,12.241440690901204,60.70772538088132,forward
86803,-0.39488081337306646,0.15781068108230828,3.2338615094721317,22.783598618194933,-12.381065125461896,23.613879828796268,forward
86919,0.798320561581105,-0.03716156365871429,1.4565478850781917,-4.685611369692651,-16.63284080832191,-25.20219592405313,forward
87019,0.5649302137816324,-0.3383202468372881,-2.736210678508878,-61.50814158933677,-25.711471904042206,-37.47113154145822,forward
87119,-3.0782267111241817,1.6294031366877257,-2.5007225912451743,9.715012627295078,16.305474964045075,35.81631330934753,forward
87219,-1.4074949542261659,-0.28689956394061444,1.624539476174116,3.838356285230188,28.496706934357515,-17.150389854943164,forward
87319,0.8820957001157105,-0.8280097435325383,3.2896979629844427,11.382620388626616,0.3349582398695375,-40.26968544065505,forward
87419,0.5384616013118997,-0.6154293613865971,-0.5238169533550739,1.2604186701635292,-2.937345904452432,-9.132599835447152,forward
87519,-0.1011378132784739,-1.357736651583761,-1.8627087653458116,-3.398304485922603,23.747427102542943,9.55554820074279,forward
87619,0.0860833424117416,0.7573964305184782,-1.3802134179383516,6.941922527097697,42.80738075507076,25.699923761703005,forward
87736,0.49254229231048374,0.7467575476042926,-1.0655722989827394,21.246006922809173,-6.377515821449217,27.328971690075235,forward
87836,0.24382033720333127,0.4832797757834196,3.5175498562812804,34.07305437276893,12.251089186877492,29.307757747350678,forward
87936,0.260246680945158,-0.04431976485028863,2.5473949105709788,-0.47462888492883404,-23.935235106603493,-12.475014377495421,forward
88036,0.49214576727356757,0.094652798640728,-1.328548112630844,-19.57720217082559,-20.58468751680103,-33.78471110676767,forward
88136,1.2987455334328115,-0.017634587020426987,-4.917935124632716,-108.41371439359064,-27.216164285743307,-61.68812390415578,forward
88236,-2.857580511422455,0.06678798257224261,-1.3340186529964209,47.7414581850692,6.59817618164388,83.94675418274353,forward
88336,-1.4197069316759705,0.18328136855587362,3.7064983106881377,33.62310541591059,41.10607284037438,-7.502248194717095,forward
88436,-0.15902265068795532,-0.16076880023553966,2.8801152915745973,8.008730627335634,-9.648681245170499,-31.41806763483118,forward
88536,0.02148706119749695,-1.0021366225130854,-0.5329676435381174,-4.253293265516224,7.284973047029819,-5.424308708147401,forward
88636,0.5713202436123043,-1.809729162569344,-1.8437141420185565,-14.02489016810345,39.376733829324266,9.483988308808566,forward
88753,0.7571660558287053,0.31427564664408564,-1.8844371975511311,-22.21310706776962,22.653036137115556,49.519670614725335,forward
88853,-1.2390895216323434,0.9907036666117608,-0.5969499941051006,26.982913325587372,13.792054141939593,29.113889657949038,forward
88953,-0.38669732425436376,0.5406893238313496,3.9151749633938073,27.268872855568294,3.619935373309643,2.899427895831695,forward
89053,0.5945835572347045,0.03699365974590182,2.2017057424008843,9.026098403266435,-29.675331207724085,-17.159532063147225,forward
89153,-0.4225126609358936,-0.14194646473526953,-1.260902563381195,-17.364082568410765,-0.8164027464555451,-5.503987987457477,forward
89253,-0.13832721479218452,0.9894644802056253,-5.1802977748185395,-30.526919193441273,-17.731346962724228,-44.277968294698695,forward
89353,-0.6106148372443393,0.5438173927240073,-1.5218313813716173,0.9792826411188095,-7.5642688737017485,-13.438365602375177,forward
89469,0.3818510532669723,-1.0619663834452628,4.191587181720138,20.50188171839838,10.633729419722446,-13.298255370609766,forward
89569,-0.026223916993662715,-0.6167972887389361,1.6898048522889613,11.805085518038476,-1.1072699274376818,-3.441013018472458,forward
89669,-0.43541897732540963,-0.9926762818589806,-2.4669986008197067,11.45548313914502,7.144164001534952,10.49536259374268,forward
89769,-0.23209866402111945,1.0261803459234535,-1.9407114579588174,23.154730607125916,33.170475609803006,2.5212038226647118,forward
89869,1.074346630134061,0.5855512327343225,0.1161672958344221,3.3054320559004124,-17.77421493750252,2.6625046417798197,forward
89969,0.368691638899222,0.21231997764408586,2.726114816430211,2.263009438546713,9.356571983615625,14.838703792615885,forward
90071,0.49803844204135234,-0.008174538627266883,1.1299386804312468,25.649199361831904,-4.701284519403715,-6.495566676629602,
90186,0.10521704541612416,0.32565380361825225,-1.4941355651944874,55.520637253458105,-15.180064694502073,-13.761511243518589,
90303,0.22346677354779093,0.557125933238864,-2.420606267479062,-27.486673927821663,-10.527418379064843,-43.56461309249881,
90403,-1.2678770785689353,0.4880062197834253,-1.3032839075148104,-4.437630252817937,-11.1137303551552,-7.994406866872472,
90503,-0.7191278554659336,-0.1579848686054349,3.0150457400679587,3.0753520110666557,28.39263534197403,7.648411681634428,
90603,-0.6072116412047296,-0.22364333569109437,1.5617513038277626,22.465940180275982,-1.361008787061011,-0.4541165461908164,
90703,-0.8595769212502986,-0.6626537616372108,-0.6359346815377473,10.650393373749983,-1.5529630361128741,-1.055305314623696,
90819,-0.47802075927667315,0.5598360689803957,-2.0048475377827883,-9.397921095077235,-1.060700630459477,-28.4340962977833,right
90936,0.09505597261413931,0.14597002116292715,-1.7268056724280119,-30.500281455678223,-34.26671755649547,-32.684896971139295,right
91052,-0.9193649619325995,-0.04904284784942865,2.612878313350677,4.7528161622573455,9.878590535275006,-4.1299029099521825,right
91152,-0.16611461824290452,-0.05024608615934849,2.722096812960505,4.682620600609832,-18.44465093850534,-34.386273187727376,right
91252,-0.43606903873197733,0.37966917918324466,-1.403912857955694,13.115789428253814,-24.554275641649255,-43.13375451437065,right
91352,-0.07383289611507207,-1.652223894174397,-2.790375399416685,-14.595192180779296,-41.072038007740204,-40.868812559175645,right
91457,-4.165916149368882,1.017923828101158,-2.3680501508116722,11.908667898122658,62.92791935172899,8.16333964316169,right
91570,-0.44210291206873953,-0.24497867692559955,3.3553765960752964,-3.1588461644715955,2.0008774503722018,-83.84705391142886,right
91686,-0.2303970477350056,0.22773557344079015,2.7479776886701583,21.75805254450669,-4.567715901315884,-5.199078097624353,right
91786,0.2575159408070147,-0.7106471004337072,-1.9634861843466758,12.903441408279056,-1.9678161331381665,-18.144317275416125,right
91903,-0.33310046636238694,0.6183619077071547,-3.3201761033564803,0.4151807860228942,29.910327281212957,-5.796190310339792,right
92003,-1.3684043222010134,0.8709361543282866,-0.4706698850572109,34.792413311249256,-5.232238239157941,-5.620099068913579,right
92103,-1.4811946889482437,0.6671624712333083,4.510169731777906,34.71134921108496,3.9172219182553865,1.2044497522269175,right
92203,0.1444769695935771,0.5656479701295495,1.7168448349058627,-1.4153491317673976,-49.93238821041794,-41.747280754371424,right
92303,0.02708875366207212,-0.7564195483103394,0.03507365146875381,-10.989716317942571,18.484165290401158,-17.475109000916618,right
92403,-2.4931068555444478,2.1519689209379256,-4.991926243516803,-5.978053915388314,70.40450396441341,-112.38666467905782,right
92503,1.9566032929651438,-0.755681881685555,1.365385851162672,6.542520385192032,-72.75183507647169,-15.247606727657038,right
92603,-0.28214166535642,0.39198417861610646,1.9131319616377354,-34.03810087969139,-12.14267103286094,-20.827987392773345,right
92703,0.9596746143586933,-0.4537061830356717,1.9608862309813497,19.73038453088876,6.537179177261081,17.702207668177664,right
92803,0.23512546449638902,-0.4437830471754074,-2.5833424222648143,4.9588718704592285,-27.35484786174583,9.882613516696143,right
92903,0.47501328455638137,-0.17608429665863512,-2.826115990361571,-71.54186706500393,31.46714254401772,-6.783655518084277,right
93003,-1.4806819171205161,0.1881404990248382,1.8466577942550182,8.43973605453095,-7.7885287435890085,19.31549664258738,right
93103,-0.9915276963457464,-0.16310235774964094,2.2270897745043037,37.48422842919172,-27.386092562104054,1.3865748254546033,right
93203,-0.4109369355630129,0.3104766927525401,-0.5966945580393076,13.579300579482865,-20.81010595752625,-13.787707580306526,right
93303,0.0438476903591305,0.3991887031674385,-4.398887869897485,-23.15875871118893,-9.324768061519107,-82.65192790102753,right
93418,0.04326141490377485,0.04403787916898727,-0.3823439513504505,-14.56162521610327,-31.690329220431643,-71.54306917829786,
93519,0.2381004617191851,-0.16501622854694722,2.2947248023599385,1.826616059313316,18.299951673391327,-10.780188312321382,
93619,-0.20628939224295317,-0.5795382560551167,0.9054612320035695,18.260290472428355,1.2095355751159325,7.016243949890722,
93719,-0.5396600538488477,-1.1085253055244684,-0.15472119063436984,14.67927522455674,2.7973724899138337,8.670814160757175,
93819,1.3168839783221482,0.199997671687603,-4.4709898140341044,-22.725692274411564,-60.34739192102813,-12.736304971741552,
93919,1.4135264894753694,-0.4683785592496395,0.22475626536905763,-29.30106757705865,17.986731150885593,84.00983780991777,
94019,-0.1456264501559548,0.5265259200528264,-0.9664718732833861,16.73782423095959,4.426860325157296,30.128688428978265,
94136,1.0065506395630537,0.5402335428878665,1.9212147303283214,-2.3871711786001435,-7.937523343917313,38.89518500227086,left
94252,0.5659168501988053,-0.12030571081340312,-0.3406938441008329,2.7109255603533327,-8.187035276939756,21.83117825730814,left
94352,2.378369007991254,1.091267004470527,-3.8181630344063042,-22.416940403170308,-40.62079131493956,4.905487965680055,left
94452,1.5729972127243876,0.7568348511129617,-0.5601543411493302,1.7627407705255913,7.076332966000732,104.41905776694118,left
94552,0.3219539992522448,0.08880027322024106,1.2086872229754924,-27.632805825114083,45.21081162587694,79.71522659567803,left
94652,0.47807048016991466,0.45410146596357226,1.668917547082901,-17.21977603917403,28.193615582390905,95.4085014591311,left
94753,0.8528568922802805,-0.057931087704002855,-1.4342378535926341,21.314238805070307,-18.6666679450239,91.06659118488902,left
94853,0.19860607119873164,-0.06879179667532444,-1.1331021128982306,24.28795461307941,31.378855518806134,65.96665002290015,left
94953,-0.07151679662584792,0.5135381359249354,0.5735492447733879,-5.619121071201797,46.841806158162626,59.84401380938736,left
95053,-0.01634403575323522,0.6542731790438294,-1.6754782207727432,-19.58017501066184,27.976533387547683,21.860751268867002,left
95153,0.3159994016967714,-0.10312573569267988,3.3799569105803964,9.01199833149859,22.373963145365295,36.396934030311975,left
95253,0.3638075201194733,-1.0224833911016582,1.2070675128191708,1.8702434657499494,-25.7498063407589,-2.6695506222389227,left
95355,-0.40809506320059297,0.038301381343603134,-1.0236544807076453,-4.44902727722175,10.1621996264078,-18.44132805147413,left
95470,-0.07289915892891585,1.2064791915372013,-5.309066778072714,9.23872731477081,-42.63477504455537,-58.83619890678447,left
95586,0.18603658554814756,0.7435919231802225,1.1489783119440078,12.600372254427251,9.43715797053802,-0.5927654376389613,left
95686,1.2601559827975928,0.5530494775801896,1.846749564191699,-12.699253756815171,-16.978021493501426,-26.970986107749237,left
95802,1.170648145829886,0.7675140660375356,-0.3600532090872526,27.375833617970695,15.21954489545204,44.41214394584901,left
95903,0.13428371155504137,0.5952414366215467,-0.35338206076025963,17.228281332237987,30.457466414866,64.41073292997125,left
96003,-0.2465956836681813,0.7822659372285008,-1.8372212728679178,-23.60688229999159,-5.9033282307737895,-5.155886542634131,left
96103,-0.7812403935730456,1.2649971392184496,0.990122213461995,-11.738182107570909,40.17207862232099,-22.219687955034924,left
96203,0.03214368069777265,0.48748921017199753,1.6791256373643875,5.605333053701657,-23.36500481091393,-30.850219367614656,left
96303,0.30221067644953725,-0.3501274428784847,-2.40472013156116,-20.044783261026325,-58.02195156525974,-74.21638472887334,left
96403,-0.5981478255875409,0.1960059717029333,0.08039397166371345,-27.115263608682,29.661182470858403,-44.73149627068213,left
96503,-0.21370697502307592,-0.5057961434960365,0.5611603033214807,-3.24237233438827,-33.606699301524216,-19.54802531023859,left
96603,-0.7691083494916557,-0.40290231686308975,-0.03325695743560791,-5.185783134404923,-1.7113401819266605,-5.203578765400568,left
96703,-0.6825548322848976,-1.6252895638890563,0.9353256243914365,-10.06828537909377,-0.985293527753538,-13.928079066807689,left
96819,-0.4481205283904448,-2.28710351370126,-0.09144961868524551,14.986688378720673,-3.810873311557349,-21.1357830375308,left
96919,-0.09851840629400685,-1.558218453526497,-0.7694114240914582,6.352287237089306,-19.707993463242165,-25.0234259678118,
97019,-0.2339405655607581,-0.7197852233961224,0.2824871543258428,42.472967863117766,40.38097654299124,26.09966570551988,
97119,-0.45151517579741773,1.4203674414113163,-0.8448428049117326,-15.470834385205979,33.82896731749477,-6.617691739649899,
97219,2.3460849872410297,-0.19871201579123735,0.8601742295563221,2.8153587258760044,-18.634209178540704,21.88847500670808,
97319,1.260317895361036,-0.041163492776453495,1.3145225098878144,-7.1001703262040765,7.93373173515431,22.50378625846702,
97436,1.1317623156618326,-0.5685623962715268,1.0998206055432558,-13.594431156041736,-13.492972964789429,18.09085396968785,
97536,0.8432118427090346,-0.7533600146092474,-0.6409282520413399,-9.175898112143155,-45.728010625303234,0.7926168794752402,
97636,0.032350290919467804,-0.6781681416332721,-3.272878345608711,2.289721027730163,-24.770965100615204,1.803800452721123,
97752,0.42310427015349267,0.43979397753924127,1.8217589153200386,16.516942743390548,13.889436417804696,35.05346655642173,forward
97852,1.0309852619871496,-0.4014164622195065,2.185570600157976,2.0927456291429887,0.39457922793884326,32.1140365904988,forward
97969,0.16056743244454263,-0.3980857103615999,1.7558137402474878,11.66255739930688,17.253132975533077,27.235604711668454,forward
98069,0.3607008593410253,-1.4755001305684445,0.10094634582698345,16.174518039541127,-3.3445314738041505,12.645955229400624,forward
98169,0.6536574582982808,-0.8374211304783821,-5.650826790100336,-35.61534865339824,-32.441404142322924,-14.416633960402239,forward
98269,0.9133529351014643,-0.36358006803914905,-1.8307845178186892,-0.9500859302945321,-9.86048199623801,46.410783655494384,forward
98386,-0.4531557460786774,0.6302370544180274,3.508625960591435,19.040035113360766,22.684817007323623,49.656663718908284,forward
98486,-0.02205481461547315,0.8901794917196035,2.2017782231152054,0.902505018267225,-18.36941469725036,-4.363751511660494,forward
98586,-0.21078480396606028,0.37095571137368677,-1.7343740618556738,-15.200403290303079,-36.1358807851395,-37.30313962372717,forward
98686,-0.6210038735833019,0.14969181816503405,-5.526931530362368,-75.39151877557403,31.01701941733554,-74.33395960524594,forward
98786,-2.589959210056066,-0.07721578001901507,1.4958943915605545,54.72792891348101,10.393986364760412,25.810786269668775,forward
98886,-1.221822452750057,-0.43370384397059675,4.743619591212273,0.8458520141965542,-7.851649083030035,-17.28578810995491,forward
99002,-0.4477325154535472,-0.4198652882322669,0.5481155283093452,-24.26196232819293,-8.158614006029687,-35.22025294576427,forward
99103,0.3060205170612782,-1.6341925629213452,-1.2589812399297953,-39.09011860118302,26.11575080101526,-12.169727973484301,forward
99203,0.40831769297532733,0.17511632840931415,-4.917887778359651,22.438545999062352,3.2531789743156994,18.581111287933027,forward
99303,-0.03950841904580593,0.9944731021478772,-0.4834042789459228,37.46373786168168,38.201405122232224,19.49548920269014,forward
99419,0.10630830211839638,1.0733753739491105,5.032394447505474,37.13352212097366,-7.728818376091111,14.868618313633247,forward
99519,0.5146586643874645,0.6983274248257278,1.9852152010738848,-10.92569951617298,-48.47273921874578,-11.860719970149168,forward
99619,-0.41729214980863033,-0.0867427561685443,-4.323952163639665,-146.5652318141251,-22.554806064019726,-24.259771545016648,forward
99719,-3.5939679100513455,0.9254364638660103,-3.556946047124266,74.69545419725803,0.886942912491027,44.374953565818295,forward
99819,-0.691018928443268,-0.09521262448057531,3.257712340658903,22.403879373929954,57.625356631102946,-34.41176003861528,forward
99919,0.7279846772689372,-0.557916499094665,5.354134584811329,19.48616428692578,-14.004730864768158,-29.90885537544682,forward
100019,1.224572920501977,-1.0677006893135608,1.3602227693110704,-14.879519295548588,-9.328131075911692,-17.53051549546376,forward
100119,1.4166951826393603,-1.493906286483258,-4.507344737485051,-16.79756789562969,14.630534994639529,5.558175720124597,forward
100219,0.6308152926973998,0.34970658711791036,-3.597868424621224,-3.9951360205518376,22.47528387906056,54.51544172840191,forward
100319,-0.35334856034945694,1.0096092964813113,0.6168821905434131,12.013039165055977,24.851870398881296,49.74851610286661,forward
100419,-0.24139754876950753,1.163178102210164,5.047510768094659,60.20823364687829,0.7668508979658663,76.16565241610327,forward
100519,-0.05866875432878732,1.038543422281742,3.589206979259848,-16.95873133173802,-9.736403072228265,-22.420941186476643,forward
100619,-1.095023434394598,0.7030714044824242,-3.7150948741197585,-128.17754294575036,-32.40876608337402,-49.38198424634163,forward
100735,-2.181851433504373,1.5787036076724528,-5.0011447382390495,6.096553855506627,11.23347808545751,27.319349661081983,forward
100836,-0.34965785260535776,-0.7804522388700396,4.3093081367373465,30.813667610271334,43.39828432583066,26.681597822804967,forward
100936,0.7958985220659524,-1.7178807538248597,3.910740780338645,3.6842949651982035,-8.69538235120171,-37.468467767681915,forward
101036,-0.4920586369793862,-1.3528671458512544,-1.2123615275740622,16.118851997805525,-31.24755879239098,-11.601486970390505,forward
101136,-0.27500593172498045,-1.179841286915168,-5.130492418164015,-35.80103076107962,-17.558606355972728,-16.211932108267167,forward
101236,0.75338792552948,0.5276173685513437,-2.5399095232516524,15.84885461991492,-29.719553267505333,50.50748330834384,forward
101336,-0.3263249078128487,0.9351156349025667,2.496902156174183,27.33426679422929,36.98265690258641,52.81495002131135,forward
101436,0.5431516953568906,1.2729936909303068,4.5204000338912005,43.357361247418524,-14.33457948280829,23.457697308140173,forward
101536,0.7023105031125247,0.8644574598334729,0.35552491800785063,-8.275717599349555,-44.21229944092361,-20.498801303082704,forward
101636,-0.04114559179358184,-0.8646182033531368,-3.217985894948244,-123.01760823537253,13.402501986590732,-25.570397761830176,forward
101736,-4.94392472141385,1.5563889000117779,-3.5556513311386104,63.2772698673968,17.58229686710892,25.162150524949343,forward
101836,-1.046421608310938,0.03711509416848421,4.588947500416636,25.91734234336285,49.796050804395314,-5.039696060228929,forward
101936,0.8039348212663083,-0.7740389377616346,4.238150195452571,4.710198343157405,-18.402742605305434,-35.181331112778956,forward
102036,0.9650815879687666,-1.142777849868685,-0.2670242122560739,-0.6604497308277315,-20.890487038773546,3.0363977346827804,forward
102136,0.09441445984020828,-1.5723185828104613,-4.037864354473352,-11.07005983314943,60.96877521095921,-1.3919058948235041,forward
102252,0.06043108782619237,0.6061798870041966,-3.2584611131995915,35.8271835554116,-22.1946843400308,65.95376145593633,forward
102352,-0.5354970158852637,1.659698467838764,0.18556173457801342,53.218166823868465,44.81250572933306,46.3490080095462,forward
102452,-0.11365673778560012,2.084879105874896,6.437021591210365,48.437461291682666,6.015215267115061,60.520489405163765,forward
102552,1.4231880517899989,0.06786795982867479,1.2726181356161832,-80.27388142827171,-80.71240006355404,2.237464317607454,forward
102652,-1.6887857383742928,-0.2956749910704791,-4.051826244330406,-82.09939974811935,57.004714416696814,-28.006772342550622,forward
102752,-2.0574249894991516,1.2962176223903894,-4.518649390831589,-21.85686830632385,-30.1199116358948,-62.68561156073361,forward
102853,-1.127165489390865,0.1599906554698944,1.6854367202073335,33.397586229895104,-4.862224693703548,-8.799481264341875,forward
102953,0.930730259425193,-0.7775823094569146,5.30465422232747,-38.69408715763276,5.399766130912252,-35.294835196406225,forward
103053,1.9382760475054381,-1.0361948863942176,1.1610597948819399,-5.557443609222935,-28.882667263976593,-53.13589036512649,forward
103153,1.820261808630079,-0.2588200456755236,-3.778686764064431,-32.217626654545796,29.73114068343226,-28.413204456659525,forward
103253,1.2838733968630431,0.19127247690763324,-2.5978666221797466,24.297627868491443,10.921534808326566,50.80811408466196,forward
103353,-1.0463611102953552,0.9122550568621605,-3.0246582025438546,67.4012902769263,-23.532551058801634,69.77061459811203,forward
103469,-0.35877701513897625,1.5387860233038664,4.99221149019897,60.705799267535376,35.80637196901058,55.92581432030701,forward
103569,-0.013264938835147767,1.386635852201283,4.710885780867934,9.149497723453763,-2.830388984031441,10.950190866989354,forward
103669,-0.1287213647201657,0.6704552291683852,-2.643036135727167,-81.02983310523038,-7.041433260662905,-31.533344152548068,forward
103769,0.15658994364831597,1.3357403622224926,-5.38947653182745,-41.41051486224936,17.97670272563672,-58.54590220668059,forward
103869,-1.1345164366755633,-0.6323989816922694,-0.48009646957218644,21.51439749869753,-14.351371502882767,-6.534179016668153,forward
103969,-0.5430311377171426,-0.4864736033886671,4.46683737052977,16.51263972421344,18.925554312682184,-20.08729777351507,forward
104069,0.5544240173364058,-0.6839084388509392,2.05881761290133,4.028926673923183,-13.5319622458928,-33.25178901187201,forward
104169,1.1122479062441737,-1.245212242296338,-1.629965008354187,-26.70348345645298,-13.578578286978138,-21.262443773046808,forward
104269,1.0133100506953894,0.5080599237095564,-5.529833097022771,-5.242545421502314,-28.54395135284649,-7.112304157264604,forward
104369,0.3093636169441044,0.8538413732729851,-2.2181682169020176,38.2702192781201,-2.4208736798425137,30.340673595153365,forward
104469,-0.49204237996432926,1.119606817639619,4.496762553194165,35.68622552641546,25.838981290562586,39.60812697802596,forward
104569,0.29906962021114303,1.142271507781744,4.10722781355679,19.401809743128833,-5.788850418302967,13.001091769069083,forward
104669,0.4610216206155717,0.6648311056762933,-1.0906015262991189,-16.581677568796636,-26.440002079030567,-36.19260209110187,forward
104769,0.42719259891305117,-0.9300250337652861,-5.9434729348689315,-89.10127938329872,-53.76987535407625,-60.122931414334,forward
104869,-3.7166707451343535,0.9707564187347888,-2.552355747848749,25.065370159504848,39.17672539985878,47.04067394603672,forward
104969,-0.9596819208823144,-0.34345600229054685,5.4224587639749044,10.37764001452928,31.135711029637434,-9.95467371998707,forward
105069,0.7468469794534146,-1.1207279306240379,3.1328958744227884,-6.246854302626873,-25.528286230502463,-43.7908596936609,forward
105169,0.9699990975614636,-1.0926206110365688,-2.2986317466706034,-19.49406852334278,-29.127048017385064,-21.08797000579342,forward
105269,-0.10421431638067588,-0.4318626730833202,-4.787099251976609,1.0260398750208952,-1.514268520360871,-11.117487812972353,forward
105369,0.7980265470705926,0.058468263320624825,-2.4802608179748056,28.68762438203771,-48.59754043526026,3.690427621299229,forward
105469,-0.563384007252939,1.3305400171004236,3.1029858893275257,11.149620437922678,39.60354733618746,7.54877117447499,forward
105569,-0.5288743828751147,1.872070467931032,4.363969701251388,29.470435777907458,-10.850386435289835,-2.6554539655656626,forward
105669,1.1126472808253018,0.6433427658371627,0.948497240653634,-18.050055542228073,-54.493301670207316,-26.759533696329395,forward
105769,0.8466537267912179,-1.7091750309303402,-3.225690477976203,-90.32867803752835,0.8365949734370713,5.350525162751515,forward
105869,-2.7777280992895363,0.7409681505478918,-4.441798206341266,59.4710308391913,2.2123853570790475,12.014530707615979,forward
105969,-1.2822040023460983,0.7300308692090213,2.8574656528711317,6.921050322767784,44.19850928898935,-26.66615818018615,forward
106069,0.841377905280143,-0.2699836465835571,4.7866935937851665,5.64119795014657,-1.8787167423021733,-16.87902302412397,forward
106169,0.27075934366378934,-0.4596832116186619,0.74777417730093,2.1456813027578803,-6.392756107921631,16.748156599626526,forward
106269,0.41421847798433153,-1.9212242288090287,-2.2521932361006733,-4.618027928515844,18.37510595237627,9.568336876189992,forward
106369,0.5154771411634982,0.2656526316419244,-3.590110650101304,13.753136577822506,22.828865696919195,12.421173703815503,forward
106469,-0.5010231569405644,1.0753154021009803,-1.2113082191288471,33.89404877500124,21.058226239505306,19.252411307865852,forward
106569,-0.1826661957995966,0.8931605533570051,5.082113879442215,23.839177033663724,-0.9784799871696271,24.38161016697863,forward
106669,0.4300728670570999,0.23712533307671546,2.2246283528268336,29.680085019386414,-21.292662237482237,11.471833758244383,forward
106769,-0.33320856637936086,0.185627785551548,-2.2531401615619657,-10.410364304616458,6.648682869235186,-12.1112709456991,forward
106885,-0.6548024636149407,1.7521069946840404,-3.246543296390772,-34.10768684695548,33.06974739501825,-31.853365835919845,forward
106986,-1.0896607383176684,0.22059096238315104,1.436403507193923,14.244276698017906,28.53022608770935,28.112343161456923,forward
107102,-0.3757039653467014,-0.016527210300415752,2.2466157282292842,0.9121513798093986,-5.479975176769828,-15.645651369465163,forward
107202,-0.44810134876593943,-0.8337553014472127,0.1756196017563343,15.532826889660308,1.162577811128683,5.201011894933113,forward
107302,0.4036155066337436,-1.2208166367083788,-1.50783851185441,1.0053215633907195,28.697299344997035,-12.61762104340247,forward
107402,0.45907918131090697,0.056226037351787085,-2.5066069731086493,14.190804000779522,16.775576394049544,7.847959073330936,forward
107502,0.4217564357411116,0.9715843939915298,-0.9868927300214767,13.502556573968603,-5.513515247575999,15.958793344795446,forward
107602,-0.024401158545911312,0.8016574509188532,3.67825772010982,3.8731437193335325,4.456290329630412,20.961898374093323,forward
107702,-0.2442613955017179,0.5068333775892854,2.529671622353792,-3.7157842717060783,-17.156690704452497,1.4658621159393443,forward
107802,-0.1629192562676966,0.30438714370578523,-1.4666022461026906,-14.480383531020554,-21.558732256600084,-18.301860711264347,forward
107902,1.128013922913745,0.011101824250817299,-6.564528027182817,-88.85578189396095,-44.546469861161064,-77.99013937738624,forward
108002,-1.6096432280763984,0.18893427975103258,-0.38317397243380547,58.23338690120665,26.346346525131352,39.417236851102444,forward
108102,-0.7617609093382954,-0.27830168533474203,4.54917721556425,6.8672297127685535,12.496859883782061,-13.944093299090431,forward
108202,0.27195894697820766,-0.3511962411537766,1.8634592914521693,2.720510023306153,-8.418373784128088,-17.91650314583952,forward
108302,0.3295809869993478,-0.7019459075838327,-1.176229306963086,15.683287419339226,5.023579375108637,-6.223266244328234,forward
108402,0.6188222186952829,-1.1420528965950012,-2.549205759385228,-9.103421267312857,-10.489207739526853,8.532992042363718,forward
108503,1.2129860892131923,0.09850187528431414,-1.794395107576251,-2.5949589800868598,-23.18725596795352,34.18814647537823,forward
108603,-0.7017289038322866,1.4211062770798801,0.9333674760609865,-2.7412968502714405,32.20131957790239,19.154824980099296,forward
108718,0.13870155539675616,1.0329401954472064,3.213774999254942,10.976525515107983,-8.62473258197439,8.128220517996777,forward
108819,0.38710027903206645,0.11827011333256959,-0.6159118842065334,11.64192169027698,-28.558958986000302,-8.006462150757544,forward
108919,0.29696824575141073,-0.47667292486429214,-2.604210438248515,-33.886579963143824,-28.491295716987572,-31.286764078226852,forward
109020,-3.142872201775014,0.773832163143158,-1.429998900848627,36.51375417078128,0.3805592508111872,34.62237916695638,
109136,-0.5353130376204848,0.4353723617047071,2.915985061857104,-33.967039591566575,8.59393355145951,-13.43582733332487,
109236,0.7048498853970319,-0.2941381368920207,0.971218775549531,-10.007916752114612,-0.23528112716501595,-18.94246756861443,
109368,0.49663076720051463,-0.5780813352450728,-1.3711661881297825,-3.5656417727103884,-11.513019798939562,14.89332652295577,left
109469,0.9028433776553719,-0.07203034020513295,-3.560499940213561,-10.709308024209575,-10.583828057646333,-7.09002792217343,left
109585,2.0836003181107343,0.11203735642284154,-0.7647159597516059,1.1353633492675905,-29.50705583714248,38.00759508943853,left
109685,0.13893403984522446,0.9943497680291533,1.0965753400117157,6.327926086753986,17.647924739748987,41.213098489573895,left
109785,-0.465689685491845,1.0955202780008315,1.831978696039319,-2.1672523208172496,-3.207257478091588,3.8599870674447954,left
109885,-0.2835596058629453,0.7098658869281411,0.0028068741142749784,-3.443088115319673,-18.33149690207303,-8.14731858068978,left
109986,0.6426815254494548,-1.0574147114902734,-1.7884598723083733,-58.626443797373376,-54.79752854112344,-20.82832548713726,left
110086,0.29056670814603563,0.026057401320338246,-1.2265239084392785,24.80721291454046,-1.36953329003201,45.87520803210618,left
110186,1.0005003996133803,-0.6108578156873583,2.4168974760890007,-10.70702930234773,16.923289480134823,43.74042557682952,left
110302,1.359384272660315,-0.22273221219554543,1.1565952166885136,4.013207420435222,26.327916967203365,62.63986978386204,left
110419,1.135669040776789,-0.5337962033167482,-1.0093968227744101,10.62787680137739,25.77371541794853,79.85238362440106,left
110519,0.37782143242470917,0.7910834499344229,-4.090447359147667,3.712197568618175,70.5618715228905,75.09986969801449,left
110619,2.287829343757778,0.024454496168345212,0.46252983322143554,-0.5539311164523845,-19.623562079817052,125.97682867441559,left
110735,0.23795962847638874,0.35237902119755743,2.4358839161098,21.07999575993743,29.950714189775244,98.36603484144915,left
110835,0.6102770566573367,-0.2594169521227479,1.09869364733994,17.588017150538803,-6.656527341496946,46.440918450112484,left
110935,0.7285232411250472,0.0651858811378479,-0.22996377088427541,-8.03903873800392,10.288820234562435,12.200375886063794,left
111035,1.1379618278890848,0.32373730247244237,-3.666049395921826,-39.97103200410166,5.078892808328339,-4.5423844372316,left
111135,0.795121034887433,0.05737871451824903,-1.178631691929698,27.74078087060823,17.207799302464412,72.7312215655566,left
111235,0.9977695133447646,-0.6384272290058434,1.500604468947649,23.374886387095646,22.982519340035093,56.132465108740334,left
111336,0.2650703565082513,-0.11146949340701102,1.9073691603273153,34.48745219499736,12.818215161589283,66.28131000777347,left
111436,0.15612294719107447,-0.048725452463328836,-0.7336620653182268,32.40389957359039,-13.17482360702388,43.766615937201934,left
111552,0.4625263991553336,0.0963297919422388,-1.603155327361822,2.653359445367996,32.0276654333494,32.60950875817528,left
111652,1.989652452868968,-0.3786918585836887,0.8263736667633056,-19.909849458878135,-9.919435920285329,58.12841372385273,left
111752,-0.016815525722503662,0.9311258346140384,0.5048942262202502,6.460298994850241,20.575762167103115,44.112230339393754,left
111852,0.773955935653299,0.23342092560082672,2.9357401481628416,12.425347803172027,-8.519128465895886,5.189840693658733,left
111952,0.6869939837761223,-0.7550082202076911,-0.0527419946283102,-33.01924839138976,-21.008668094434984,-24.483077749741042,
112052,0.3564658155871555,-0.2690788066983223,-1.7338854015558958,-24.17204971795888,-8.888360808463958,-7.410913197588392,
112152,-0.8666233326304703,0.8055673178389668,-1.6171441052258013,-9.707241579566896,4.523784978348008,-12.557154232453994,
112252,-0.5454431672949344,0.4280529786020517,0.8026303876042366,-11.822715090059924,12.937420745626223,-23.54462341815963,
112368,0.031596951801516115,0.2757895563833415,1.2674158907979727,7.395064597393023,-13.65529241041478,1.7256606340169443,forward
112468,-0.212224371782504,-0.31227906599938865,0.5494131669044494,-5.4227420335065295,18.61645751688784,12.093742972741556,forward
112569,-0.38248043721169234,-0.837784995354712,0.4825158056735992,39.12375728284533,0.13859790515320786,31.798352077249977,forward
112685,0.04415536350223701,-0.5979556640163064,-1.5083891314744948,-35.94131260134793,13.126806523385044,2.25866202314,forward
112785,0.4385905200336128,-0.1607946653291583,-0.39078094030618665,-18.29996021112779,12.359710539021851,47.743749713535735,forward
112885,-1.071772322666645,0.6915975320488215,-2.170678735974431,14.43993685830303,13.943047426373772,13.589708080230672,forward
112986,-0.3486342086460441,0.4792980126708746,4.2663288267105814,21.262413037195543,1.2428708469687086,13.358956969310961,forward
113086,-0.2269960071198642,0.40923400410264726,1.307266255149245,-38.008004900788734,-32.38535219489921,-40.59591576598237,forward
113201,-0.15556038140486925,0.31644889902994033,-2.2230992435634134,-21.656402254183973,-25.169899374562725,-20.733739319963632,forward
113302,0.2570792298901826,-1.1637635008826852,-3.407108536878228,-54.77344870920456,-63.240550770418814,-54.499763029162146,forward
113402,-1.1402286037772893,0.6449656908638774,-2.2786615563094617,54.28192097577376,3.170664953056656,-0.4549372361082757,forward
113502,0.8405111323829739,0.5783852866277098,3.9790304727107286,-15.388827718936222,21.912194546148246,-25.49352739781627,forward
113602,1.1042500393580645,0.13661562510132788,1.8372347168713807,-36.67960823930212,-0.1482313266885555,-20.580293997617417,forward
113702,1.2293214302033186,-0.7442486335232853,-0.37232875329256054,-13.867178538846916,18.824517031837477,62.20054518625765,forward
113802,-0.5753837667241692,-0.9685963180914521,-2.9404490565061567,59.62789979385899,5.9323535465385815,60.04434325774383,forward
113902,-0.1088222303012386,0.23142639078274369,-1.3681307659566402,5.623061663466071,15.993007469895332,29.01815772654214,forward
114002,0.6563114799384028,0.029477000505477188,1.4704063145607709,8.267875688408735,17.37552996545971,65.10006294176561,forward
114102,-0.22099632831364868,0.9117936498954892,-1.7111872475355863,18.441604674135515,2.780487835398739,36.916158180827175,forward
114202,0.025524609617888924,0.8699187939792871,2.858520714882016,40.320317632972355,12.24043921441415,31.896744367338595,forward
114302,-0.024719430714845655,0.4917319623082876,1.8830922126829623,-29.133092734800528,-11.142325795889105,-35.33309791613664,forward
114402,-0.6027530543606728,0.39434067861437794,-1.8426883061021566,-36.28755879603797,-24.52708807365802,-35.73562828468217,forward
114502,-0.6703802642360329,-0.8513479490220546,-2.573182847300172,-55.79131082007654,-51.591922688150525,-50.63895078948825,forward
114602,-1.0233639733284712,0.18104571845829487,-1.8474305321931839,24.806704065447295,-36.14098976663867,-36.23847022647309,forward
114702,0.04507810893692076,0.5628527864530682,1.4469453594744204,-25.947221005887073,20.508604332088964,-51.7304116037617,forward
114802,1.5478084109321235,-0.22868425246775148,2.9723721349895,-3.281329598979907,-22.195177821198335,-33.796192654762464,forward
114904,1.0875393622495233,-0.751284231248498,-0.18706278679072855,-14.506088947961896,-4.50227287067023,-13.168007078232208,forward
115019,-0.4806060265295207,-0.8865959341444074,-3.1990830415576696,43.50986229611199,45.655559393682324,0.25577049405586416,forward
115119,-0.2533974361049011,-0.2811174734078348,-1.0094079286903141,20.778717823195457,1.7563740737237874,0.8042156612638325,forward
115235,1.1421578182741998,0.6339996218219399,-1.116938913604617,8.980914140585861,-32.598307247936454,9.930865388087698,forward
115336,0.17383907501511275,0.8761506741061806,2.4873142436176536,38.967755762202245,21.948920473315404,52.29483794620405,forward
115436,0.13445957957860083,0.9061723028823733,3.100501671296358,1.2323938703904378,-7.308116289258761,4.368533497853149,forward
115536,0.3666057725358754,0.6919374315276742,-0.5366922170192003,-40.37161918382832,-41.21019224408205,-49.88341233897437,forward
115636,0.016211568479985,-0.7996022719547152,-2.4444693736255165,-98.09071674619511,10.60944809722305,-40.30935859444907,forward
115736,-1.1427815031304955,-0.12250658185854553,-3.6757939603447913,28.68979979728836,-9.643946216528388,-14.91828061908841,forward
115836,-1.2889590295642614,0.39724955179840327,1.6320727942883968,69.40552732659651,33.59987252744879,-14.17631631577628,forward
115936,0.4809124621301889,0.3467721411012113,4.91652934948802,-2.1760167341828454,-3.295661683736121,-52.300459191890965,forward
116052,0.3728503660138696,-0.23647402956113217,0.4341261610358953,-40.09330605062323,5.957634211090914,-37.10005760913518,forward
116152,0.27860649523390457,-1.5048592037826776,-2.620824303919077,-16.198956456391432,-8.066264725809237,4.321200713791784,forward
116252,0.9073707188867032,-0.947312341718003,-3.4937171452730893,-30.79490508062131,2.676315070838174,5.451624342185574,forward
116352,1.4973485358916223,-0.14978307664506135,-2.092463277393579,52.354386950482805,-45.083278333694466,57.26206911443372,forward
116452,-0.4044234620157629,1.2979210653074085,2.5560662928044793,59.19087013981572,53.475565917834984,58.62977692968834,forward
116552,0.5641941545920446,1.5315800374478101,4.853063716271519,11.980705903298782,-10.204823421923264,17.90472277706854,forward
116652,1.1414192748665808,1.4594766320064663,-0.19071897121071815,-53.02061043231502,-70.44394147668106,-28.160968985705537,forward
116752,-1.0770277589768171,-0.12044672671929,-3.050879269993305,-99.78007524493856,23.571233835166,12.458049041370757,forward
116852,-1.7960868600554762,-0.5080312090717256,-4.025013056206703,22.64871433491823,-18.52793485014989,9.685503648759683,forward
116958,-1.7366268092185257,0.10110898904278874,1.2958259927242994,69.26083659921896,25.394366711446022,-28.651195568099446,forward
117069,0.526350417355448,0.4900334878273308,5.255583609688282,17.371590653855904,-2.490739684862574,-74.08234226641183,forward
117169,1.2400401003554462,-0.12923267524316906,0.8738719155192375,-46.49864720897743,-11.597281281409069,-46.72472988559944,forward
117269,0.476059103814885,-0.9603582127086817,-3.374798504903912,-6.194138475725891,40.37795418428351,18.224018752841005,forward
117369,0.7433835411265493,0.09294299904815852,-2.589754627394676,6.7592128323657406,3.449508279696073,23.620336065109225,forward
117469,0.7166729365944862,0.5173603245615959,-2.439918286192417,55.18969068250889,-22.884507832992703,57.52130552928698,forward
117569,-0.04306645858725533,1.4554901927188038,3.861502409917116,56.79390745815354,24.850902219566446,68.82857441721636,forward
117669,0.3834092424944043,1.14297790248543,4.537289209371805,-4.856067705053605,-19.6950485472177,15.2701190311614,forward
