time_ms,acc_x,acc_y,acc_z,gyro_x,gyro_y,gyro_z,label
24,-0.06309621538221835,0.002579202838242054,0.11107494113147258,-20.688721543144077,16.770551082367707,-0.02860766036921661,
139,0.09773688226118683,0.03332330067008733,-0.11585340757966041,-14.990434737480426,15.997286583410345,-5.7355544522093584,
239,0.26006211815848945,0.030827976723015307,-0.25153964287638664,-5.432973656883208,5.790403432565499,0.3181197691726198,
339,0.20325608896166086,-0.30033742992356416,-0.3592418927043676,-8.921447098577147,2.3876262399535957,5.210099461623814,
439,0.25060630754902957,-0.16743585690930485,-0.01227729777097702,-14.781676835688156,19.074590747919153,33.81789558085018,
555,0.8594587016981095,0.3155539960168302,1.1191279480814933,-13.7609964180099,28.370954614001118,53.80953826258651,
655,0.5523845108654349,0.028275515761226413,0.08498948276042938,35.96432350866171,18.065426882955187,39.989029552564645,
756,0.071392489826167,-1.0322437376156448,0.3915022403180599,-18.45988226035447,64.50703176707925,48.359866927616736,
856,0.3087675142144784,0.4499500453725457,-0.6139496442228556,17.46203431129792,23.24548503817517,83.26225994488154,
956,0.09952548271100968,0.6439677658677101,-0.3898468743264675,-6.002709190744768,37.863440531910825,93.89439878430102,
1056,-0.07476940978020429,0.339410526292026,-0.7125994035452604,-55.31981603148139,2.406344586817427,106.23896850148024,
1156,0.19550266182329504,-0.1633579399459064,0.817061064016819,-14.687729291201922,-13.688409436379235,66.01071840342507,
1256,0.8504371177874505,-0.027649858143553138,-0.011539046624302864,22.205185755879697,4.922317978681789,43.469246576212505,
1356,0.4715259173646569,-0.05144669412076473,-0.5279501076370477,67.67192286240973,29.220720646757204,16.048794747488703,
1456,0.483074389404431,-0.6777493316993117,-0.1030704983741045,8.111869045123766,22.41932072409606,42.88964013833981,
1556,-0.26212664947286246,-0.6311211437761783,0.4589484676033258,8.089244043498098,18.36140117780664,43.71382540510691,
1656,-0.37786388332694765,-0.21158932528197763,0.2723497911930084,17.549208015674793,10.968598226802538,35.248516268549785,
1772,-0.032486776780709624,0.3574441956326365,-0.3704325642824173,-0.9920060028820739,-6.6812274399698275,37.15280032990602,forward
1872,-0.10638349537961185,-0.2303349422842264,-0.07581424265801906,-18.23001224383769,-17.42722425219295,13.094112115375486,forward
1972,0.07055573760792612,-0.3723831138283014,-0.005434884530305862,-23.767545424743215,-5.719237984055844,4.402795434277226,forward
2072,-0.6183515324436127,-0.4025266154184937,-0.6539268498241901,-11.511661445068375,0.4007242103968862,-6.996588799893541,forward
2189,-0.3804225183011964,-0.283469735622406,-0.13617197298705577,-12.840225446189649,-8.44343716328745,-2.07392931175325,forward
2289,-0.4389421099502593,-0.31639410010278224,1.12109252615273,-7.476152603219415,-14.285357724554594,-1.2459184987207095,forward
2389,-0.10409121972396969,-0.8114461467444897,0.7587456531703471,-9.97485436766352,-13.242361371310613,2.519990396869977,forward
2489,-0.7868652477174997,-1.2994722402721643,0.5301560932487249,-2.6940987490027717,7.69693761436643,-0.2636895914703915,forward
2606,-0.7892204325415194,-1.3415072551861404,0.7984767750561237,13.101152332862476,-6.1163370715507455,-3.312143357090185,forward
2706,-0.1355582432691939,-1.3597709338903425,-0.03461071013212204,1.3860252086698288,20.408063947506378,-0.23593738561429253,forward
2809,0.693306308728084,-0.46297743085846305,-1.8591233080744742,1.5801107969078534,3.8006702895978197,2.885915647219294,forward
2922,0.6814607534378767,0.027588118018954992,-1.164929329791665,-2.609715817232084,4.084235411387831,11.121165869840405,forward
3022,0.38497313081026074,0.05604074391275644,0.9803075064122676,-0.2413307537789432,6.00547370981133,12.04703301655513,forward
3123,0.25555607544351366,0.4610357952713966,1.2184206814825533,7.190600323267753,-6.6830993386892334,6.712420487022452,forward
3238,-0.12538451191503555,-0.17383914808034895,1.7747931660056113,2.7326972152195714,-6.069562655454029,9.397697406381917,forward
3339,0.31991409092247486,-1.0865677407383918,0.8614923264175653,-5.633276211369825,-5.264208220228656,6.594444337036115,forward
3439,0.5386178513195365,-1.379513160714507,-1.0891063193053006,-7.756318425236875,-8.619116458929348,11.607996140669528,forward
3539,-0.5203225353680551,-0.4693089719675481,-2.5385516789019107,-10.92672660586942,5.488846311841205,5.826051470504265,forward
3639,-0.3370595792517066,0.38851182633042336,-0.8206582117259502,10.528504379142875,19.247985345283684,-7.681246962295618,forward
3739,-0.7154393031463027,0.36273148838579655,0.9626777416974306,-19.66412315820317,0.6169761103691292,-27.781883241486074,forward
3839,-0.8184623091168701,0.0780342567950487,2.4706027627915144,5.4030480368084435,0.9115357022887455,-14.841154122980626,forward
3939,-0.6950871277302503,-0.5596466838881373,0.8713900355756282,3.780505436733826,-1.3752205964548092,-17.98885192462288,forward
4039,-0.06836845669671893,-1.2190288765087722,-0.8541945706248283,24.24206427959339,0.78762491832646,-4.168802117935875,forward
4139,0.20686459831502288,-0.5640571938067674,-1.1096849969536065,16.716375729418456,20.984603630441736,2.4992317444350154,forward
4239,-0.015052863431535661,-0.12930413304418326,-1.5709680449843406,10.70885381662977,-8.681666477574678,18.45229562773388,forward
4339,0.5062963481031358,0.9060425390228628,0.9981932917147874,2.274931106856147,-10.51710991606,29.437364001946257,forward
4439,0.36097368493303655,0.5534279555037618,0.4573614906728267,3.0738333611933855,-6.093504176042217,19.446103519896365,forward
4539,0.15433098574038595,0.5168383465141058,1.8893086029797792,-21.096447978100695,0.1473593303110417,1.747266229908987,forward
4639,0.20614967324500902,-0.3784925366193056,0.992839655727148,-13.593098415379938,-10.632599023414809,-1.3632021315582312,forward
4756,0.24405549766607582,-0.9651166592821478,-1.5045073216050862,-10.70791551939254,-10.036898952310269,-4.5878393461580345,forward
4856,-0.4198564473386854,-0.33942543160021305,-1.2643068188667297,4.529497150928255,-22.203375755749644,-8.591955357921146,forward
4972,-0.10027659333925694,0.9403294240280985,-0.39985213551223275,1.3611021685535698,8.145941443798375,-24.865129503607584,forward
5072,-0.4450977099705487,0.12103081021755933,0.3042436435818672,-18.94048339866054,2.0959259359752758,-12.741909141955547,forward
5172,-0.34261615393292155,0.15207096838653086,1.6054361317753791,-21.542252717680135,12.096090850268746,-6.395649973695601,forward
5273,-0.2911644183108583,-0.0645060821801424,0.565044451278448,2.7924637183347105,9.339222449350146,-6.800292151355136,forward
5373,-0.5773605101572349,-0.7941612499445676,0.5526958418369293,13.320783895813406,15.8522987428039,-17.984816990370696,forward
5489,0.20034060337375847,-0.7852715487852692,-1.5158429546117782,7.207268546163522,5.579123056535379,-6.13393462706046,
5589,0.18689656337834892,0.390688878108561,-1.609610202589631,3.1673042865415986,22.56540481006429,14.471417200187618,
5689,-0.5802026382479817,0.926568609701097,-0.15091244600117207,58.72417697420709,58.48950533470379,1.3454355288665587,
5789,-0.9069124537251889,1.0429308435857296,0.21107903767228126,-3.4739176682424064,-3.806925462217082,-6.086767901973292,right
5889,-1.7968736265189944,0.5681921016544104,0.9610586160629987,3.932194973576524,-7.17081668033681,-45.67459171580456,right
5989,-1.3714698472514748,-0.1740919537976384,0.07878653646707534,13.100352346955939,-24.62198672198618,-59.28307086342172,right
6089,-0.4660233744256198,-0.3102390846043825,-0.30376258206665513,19.67975746121333,-27.747687899406404,-52.03338513496513,right
6189,-0.22252046914100646,-0.015559680442512035,-1.5450035826444626,14.611673427246538,-43.89489030490936,-51.48618794470414,right
6289,-0.7553546955578029,1.1010820037811995,-2.2183470806002616,17.397378033067287,-43.15128760997007,-68.4863887699879,right
6964,0.06317761005535721,0.11728753203600645,-0.2268669739127159,4.96622627664804,12.09211994904003,3.3681346865850106,
7072,0.41324524903800336,0.22882775259166954,0.7033721409946679,-21.482630288867803,0.3197912178481424,2.1760197223906075,
7173,0.4082150728510692,-0.10006824781820177,1.2701520377635955,-16.86237102292748,-17.854963141417706,9.468247284092627,
7289,0.3144759915217757,-0.41418329707309604,0.5793015246897936,1.2961293537435887,-1.8823958663872828,3.7928411852616923,
7389,0.5408503596119583,-0.8300057396553456,-0.6852285815387964,-7.750587896523235,-17.422970751887323,-9.23839690436971,
7489,-0.5223884914545343,-0.08989230624064802,-1.6019810228854416,5.5229033425901815,-8.718654513251236,-18.207580195056075,
7589,-0.6490510604813694,0.8535638715058564,-0.6429670643925667,17.551911063038823,16.81584889694323,-13.032958016641777,
7689,-0.8994134762719274,0.9443066570959985,-0.43685295565128324,-2.8846951777919774,7.966555062984453,-23.238279188600806,
7789,-0.6940326502412557,0.15759221602603793,1.6225608695775269,4.805122604694949,14.55116819648398,-12.93866725514975,
7906,-0.6537681521311401,-0.223633837210387,1.3206301791131496,1.1885106520250464,6.2826564467087875,-9.304349210995353,
8006,-0.37953265678938475,-1.0402033183179795,-0.023618775996565818,4.861980941327544,-0.7921673676504887,-3.5631581451734426,
8106,-0.2611628824746236,-0.5673626650929451,-2.007382609218359,-3.9556421592235314,-7.030113929660902,2.118851892811247,
8222,0.4079355617899447,0.23099939754232762,-1.72434717335999,-15.980110365195054,-41.55786253321404,7.529466498559596,
8322,0.5030665358690545,0.7245042147420346,0.611018851467967,20.66582333395161,0.980238974324317,18.159447851974996,
8439,0.43016902090795334,0.545481526543945,0.2785503993988037,-8.96829621986791,-4.13857468887716,18.021747823212955,
8539,0.047566601284407074,0.0759163878582418,1.225836510697007,-5.235522279488248,4.657256693126989,11.133132361266268,
8639,0.5366965278681367,-0.21798852479979394,0.5369675268292426,20.074431404666058,31.5248405670314,-5.024854486049314,
8739,0.3073895403921604,-0.626552520686388,0.17010463772714138,-13.575995621698226,0.8434881284134952,-0.46078254401648433,forward
8856,0.5259074958935379,-0.9214122498512267,-1.1602753665059804,-3.7368024713295,-17.57215403619145,14.7136771798588,forward
8972,0.02155464654099196,0.20734028953537345,-1.460735984417796,-6.990331065953339,4.385339605192788,-11.656374370560727,forward
9088,-0.7500755861110985,0.9608879356712102,1.0846417411118745,1.046405151248346,3.4368295276058256,-19.828541179451012,forward
9189,-0.17078290231488644,0.5376040711671114,0.5768623148441314,2.5171934344048563,8.18165223410014,-12.089136010146381,forward
9305,-0.44607130424305796,-0.04055412870645523,0.6361661522060632,-2.575036598938402,-0.7899106304600342,-12.188201073868246,forward
9406,-0.4639991751216352,-0.4208119214326143,0.6223340262085199,10.02376962117821,11.256747686186097,-6.839669472580729,forward
9522,0.04661876250766218,-0.7169438624903559,-0.9227221634060144,-2.2460449561956937,1.0976530210863038,-1.2195851312625483,forward
9622,0.8254191425174474,-0.4986509479165077,-1.0495715967744588,1.843188446117294,11.350437391031162,16.687519887722445,forward
9723,0.4005458899300545,0.6131421272322535,-0.024382161584496496,11.148064862339208,16.715125804800344,27.25647435467743,forward
9823,0.5725006125032901,0.916089009001851,0.9244242911487818,-4.1955128533456785,3.2957088547300764,20.089778839731075,forward
9939,0.7639727401688694,0.8988149258568883,0.9764356334149837,13.481842317763245,6.759956042324802,16.575607238171788,forward
10043,0.04149491668790579,1.2863628755912184,1.040615552380681,24.640423110103335,21.908425989273688,-5.298892774607626,
10156,0.27320005134679376,-0.29134090738892554,0.2557312493473291,7.214727966510822,39.22196515782636,-13.08570671382814,
10256,0.6803486274775117,-0.6127148417308926,-0.9157172530800104,36.79797883271303,5.791216225076731,6.176450420209674,
10356,1.5014815440431237,-0.9430217318519949,-1.4229291085928677,-23.988831601020582,-28.146613635617463,6.70285352642938,left
10472,0.43546040531434116,0.9523582999959588,0.5757037924587727,14.087528125434345,0.5149343648296082,24.909771620022788,left
10572,1.1421959583275019,1.066177279138565,0.8442237962305545,0.02133265512950678,18.18957410885663,26.77450205589548,left
10672,0.8237989939697087,0.5120756621569394,0.2637257552325725,-10.925578280315213,33.5559544110856,44.63995807542562,left
10772,0.21647622054070234,0.17248744121044873,1.2285773338377475,-20.781376474329885,39.38690056590383,41.61305387680233,left
10872,1.4957773410521447,-0.381889777842164,-0.22226327950954436,-22.0995910313113,21.80843714246658,62.864043422611026,left
10973,1.7295872659705578,0.012342179700732231,-1.8537421995580194,-9.737899737430144,22.856971925353797,77.70003392257912,left
11089,2.108422478547692,1.2900260742738843,-1.4720102426260708,-14.86184618107118,32.29851658488626,81.0243621237052,left
11189,1.4566583597153424,1.6407880156636236,0.6267746390044688,-6.5560304993703165,33.51395216278461,103.784533193047,left
11289,1.3038443178765475,1.0321060827106237,0.8769470851808786,-4.600834207940807,32.101318778264236,93.33456232898092,left
11389,1.2824990397699176,0.4553720704212785,0.6202537128031254,-8.027640006052815,35.256944721985576,91.97732177862935,left
11489,1.047594451482594,-0.2568646372914314,0.04442833979129791,0.5927672519079595,30.274516382852624,85.58875897997129,left
11589,0.5029866755658761,-0.39231940191984177,0.6443734240591525,-4.222827206723383,28.653739813565277,68.75267735515918,left
11689,0.4611939084425568,-0.5951745088651776,-1.3287199620664119,-8.747223487002108,3.7079982829390867,37.921401517207556,left
11789,-1.0903986972033977,0.595125409026444,-2.0245202065020798,-77.90861423945297,-43.27847939269405,14.21226957779358,
11890,-0.6813420954942703,0.08123363735824823,0.3595031739890575,-23.12311366145793,1.736024272143675,14.182824632281655,
12006,-0.5491819154318421,-0.23139599564447996,1.1028069278776644,-27.26129817577875,-3.6489081819951905,8.115765668045258,
12106,-0.42174310133550313,-0.21927798008844254,1.0469552767962216,-17.563547997837233,-0.6702881914403118,4.243033467609219,
12206,-0.31335370949357744,-0.927156054200232,0.3430173186123371,-17.64483578669685,-0.23275854620545983,0.3955128294210194,
12306,-0.26756798201026394,-1.188147123771906,0.004651625198125839,0.4392463439136259,-0.64297757332231,5.273721819968837,
12406,0.09209239183450117,-0.5887530975155532,-1.960794461044669,-7.557682010020918,2.4860458507988943,4.4682931064362394,
12506,0.38968273327331987,0.21011793755516409,-1.1989940964788197,16.712820615955465,25.048902573415948,12.526391914205904,
12606,0.5648341329960153,1.0100023874521256,0.9932435603529214,35.37430786249391,10.01634264422947,9.80472374694861,
12708,1.865349050721526,-0.5828684233911335,0.2758206821739673,2.49437868158631,-17.2708709768076,15.953295042513584,forward
12823,0.2935481351096183,-0.23474691350758076,1.4810755926132202,0.7156941684646458,6.228861449918944,6.135294261592116,forward
12939,0.3508097260542214,-0.9291288155779241,0.31178222239315506,-11.661129889770349,-6.826947391477933,-4.702525906285365,forward
13055,0.5770373791500926,-0.8220115260310471,-1.7746651557117699,-6.950972954634787,-8.641831960561518,14.219533483975889,forward
13156,-0.5930717644322663,-0.050796413518488404,-1.9456746333241461,-5.027605771624359,-11.224004613078701,-9.326972505073728,forward
13272,-1.2233853912178427,0.2356532146975398,0.6430670176357031,33.949219628022014,14.087694611295364,-16.155702575925034,forward
13373,-0.8259853980980812,0.12843392608091234,0.9484358658552169,9.064072547504415,6.97492343984626,-40.419604677842244,forward
13489,-0.8963089343853294,0.11949921673610805,2.0728210038125514,-0.9016603159659649,1.0616901541154826,-30.845728518235376,forward
13589,-0.7022605995561927,-1.0198065731078385,0.4208715426653623,6.155302446992022,-5.304393638210426,-23.207553582619504,forward
13689,0.586383884166181,-1.2656031422875822,-2.1645161216914652,11.552531589514437,-8.90537480968646,3.3306228607764776,forward
13789,1.4560770526960491,-0.12935820131897927,-2.7368215038836,-6.259435937964859,-5.289718976778653,11.36316117968125,forward
13889,0.5022542331054807,0.6388499844625591,0.8814286145091056,8.914133673523356,11.149118419018683,35.29755361169589,forward
13989,-0.1449373901795596,0.5025945709757507,0.35613223625123497,-12.752857081421432,-1.6881813583286744,14.247859132237577,forward
14089,-0.30612569446880367,0.3443196333825588,2.337809326326847,2.313706731104544,5.099084128175366,3.422645786020648,forward
14189,-0.4883065544368699,-0.5289113538846373,1.357457396250963,4.489101277742684,-4.687419662275412,-8.015582160846805,forward
14289,0.3386826138762757,-0.757969261970371,-0.38558395618498326,-14.463545407169178,-15.324437818083219,-15.0185016923273,forward
14389,0.40978955562617625,-0.08937778084725141,-1.7098416781455277,-12.689198864583267,-21.025033227686336,3.031001458351647,forward
14489,0.11603388784625566,0.32474852534160015,-1.7742898926585913,14.442090075438877,8.544815953590657,4.409652944203918,forward
14589,-0.4051239384353161,0.13427081554085016,0.023646833047270773,-17.22721240763288,7.9189136397499675,-21.327923089072428,forward
14706,-0.5374179009452462,0.02149286988377571,2.5293589031428096,7.407436631300855,2.0521730248126437,-2.4064039240858413,forward
14806,-0.3587002966409549,-0.368252882155776,1.4924252541452645,19.484683843423184,1.1985980943772148,6.6359070003926774,forward
14906,-0.3412155664199963,-1.3196794542595742,-0.2846510543614626,5.360565967718257,9.091579426839347,1.6856008274828789,forward
15006,0.2546913849055767,-0.9942398779138922,-1.7455752548277377,4.543286449088864,9.370806097845932,-0.6431422449143308,forward
15106,1.6655148990325628,0.08348127015456556,-2.0642904913544653,-38.79838756135344,2.0802828817852426,9.775158419352564,forward
15206,0.9165014622602611,0.7717943737052381,0.16220131725668907,-11.012340465794592,-8.455542819817651,43.66975019439281,forward
15306,0.2551167707107961,0.38923911769166586,1.8720956023722886,4.756393046948316,7.731017697003855,25.760060162250383,forward
15406,0.27981658340971916,0.21252295287027953,2.0386440089225766,7.505449845890538,3.655529623508695,12.475809240760082,forward
15522,-0.43039987052176143,-0.8528000475265085,-0.4826742111057043,3.549027550997744,-16.094773873433937,8.315431734278595,forward
15622,-0.1908116361965425,-0.5332442685224116,-1.3134686169207095,-1.773654345602214,-6.287590831497298,-2.9357916095294314,forward
15723,-0.4276105685967952,0.4792280161745846,-1.1996101825505494,-4.129891384007958,-8.689370930958454,-36.44724861883287,forward
15823,0.02785517145730555,0.9643730013079941,0.5496756172329187,13.371661121167186,-1.063521178421575,-26.49672509254023,forward
15923,0.11060217252057045,0.3849249077543616,2.0266525423556563,-2.395582770006426,8.376468866022767,-40.084467785837234,forward
16023,0.025052571659348905,-0.3530221414066851,1.487967105692625,-8.870882354377896,-4.481261928122802,-21.761614488158852,forward
16123,0.32656426952667533,-1.0838928224407136,0.5248457118809223,-9.446103810803445,0.5949565409803602,-7.227194769293388,forward
16223,0.3139033062003553,-1.3328887721836566,-1.6521891151219605,-3.4441128571385864,-10.466693728475198,11.084201739825943,forward
16323,0.48739418883230534,-0.793197227218002,-3.587635199898481,0.250299752654522,1.7715058242214219,-0.4742740352571107,forward
16423,0.3704935372220352,0.6607759850665926,-0.8115332405060529,18.61822995097746,-8.135999249687774,20.91390604989023,forward
16523,-0.056792306632152754,0.5578422648146748,0.4797632920950651,28.901050718127685,6.988703773383584,20.258697955641953,forward
16623,-0.30332008072985334,1.1323708760142326,3.1508763522714376,21.486275902337297,20.682581203080236,12.027584052893518,forward
16723,0.24653387047834693,-0.03786211314350366,2.1408412315934897,-5.399334975220896,15.719333742683968,-5.522932797780976,forward
16839,0.14998972339937464,-0.7584130602151155,-0.9476888468801975,-16.043351086720204,-5.034426569284263,-12.161262807781716,forward
16939,-0.23533192858761176,-0.6676201518729329,-2.9923154373437164,-8.31228984726039,-3.963942119725566,-3.584284774049938,forward
17039,-0.8234203699156641,0.7448392928928136,-0.8585130183458328,17.101673530688046,10.873263300141147,-5.34328900421271,forward
17139,-0.6523298629563301,0.6971937446206807,0.8135919266015291,4.434347920034923,9.043112404488937,-14.384204222223019,forward
17239,-1.2953759108692406,0.4271794106379151,1.9895675510644912,4.785639916974311,-1.3350579101963707,-10.667771936319435,forward
17339,-1.1174214364245534,0.006748305216431617,1.0522118821501731,-3.5361488024308616,4.585880789413533,-19.75137370220821,forward
17439,-0.4698937130529433,-0.9614107905015349,0.0942903950691223,-5.39096799348763,-15.820145627286063,-9.112988654792753,forward
17539,0.39957821394167836,-0.551732257501781,-1.995944100359082,-9.203378524495054,-7.614786660350456,2.2973753219122206,forward
17639,0.2851459252063185,0.2169493910104036,-1.4354115735471247,7.647013200401869,7.742914178990725,1.0585621409190284,forward
17756,1.1941354044012724,0.39650691673755645,-0.24410452443957328,-5.986682151857332,-4.219511576768165,6.574238503037101,forward
17872,0.5129134281553328,0.5057587340950965,1.939927029582858,4.315903048316793,-3.791108451646625,5.3071607185979275,forward
17972,0.721131523438543,-0.12123568513989448,0.9321072468668222,-5.5594153994589535,-6.508712229460937,-3.9070641462991085,forward
18072,0.5668534003965556,-0.7089432191252708,-0.4090273756146431,-5.190674830511122,-17.587650027870914,-15.49481859447648,forward
18172,0.4086347595678642,0.4739101821526885,-0.3778612529784441,-1.3671694042489508,-21.934894679854782,-9.994158189805267,forward
18272,-0.01815638240482658,1.0785302724942565,-2.3986346741676328,-24.57681014326842,-8.811381161423329,-21.733009655914838,forward
18373,-0.7241985097937286,0.6853969238430261,0.1133440551072359,-13.50440414013909,-1.4408988417400055,-11.957256156330835,forward
18473,-0.0015480148932896553,0.5747957377031445,1.6372838069349527,1.9039224882170476,8.219609302865194,2.577924061410025,forward
18590,-0.8066230374369769,-0.33513153379857535,1.5921493647009133,-6.615466805527768,12.00165238593592,2.64559330683828,forward
18706,-0.26797922969227655,-0.9888035320788622,0.5759206500798464,-10.250588250683288,17.526036598915525,2.0206425237263375,forward
18806,-0.42635815738290544,-1.2823814047396183,-0.7819581864535808,3.3662346133352776,12.423309845478425,3.9148245218567124,forward
18906,0.39084443399645385,-0.1697591852903366,-1.7025012522548437,8.2660844712989,9.69057250289748,2.9689861154522816,forward
19006,0.22927483877204358,0.6297580387294293,-0.9129682466328144,10.935091026281748,-3.754297574001664,5.421180481507535,forward
19106,0.43304205559361725,0.7720625231221317,-0.07036766768991946,5.392928684666247,-12.666129900661549,11.034541995691718,forward
19206,0.573383313621953,0.5057826994925737,2.028520089793205,-2.5287334658944163,5.549313549676505,18.744836044980108,forward
19306,0.4933060797572136,-0.1983054808169603,1.5488555818974972,-12.563534482912432,-6.368366356169162,11.093015245176197,forward
19406,0.3514303787032142,-1.1712412894174455,0.29510055218338965,7.244772261122416,-4.680288091008272,11.899682784269507,forward
19522,0.45415341534651815,-0.23996552493870257,-0.9005956717938184,-4.1616620089322724,-21.690262916994314,8.153006420721107,forward
19622,-0.9252029473710804,0.34931568810418245,-1.1358552109986544,5.776062596629411,-2.7690987084011547,4.252692208869264,forward
19722,-0.12864837254919112,0.8208039038069546,-0.08202069608271122,-19.937141187254216,7.066681481816681,-18.638472924130085,forward
19823,-0.6712353466954082,-0.24919790205582976,0.893323050442338,1.0596984069204836,9.43448395147796,-8.447069970152251,forward
19939,-0.5430952524619177,-0.4797016250357031,1.604457057610154,-4.56448821004623,8.362955336749897,-19.38548388346521,forward
20039,-0.887784194080904,-1.069449578807503,0.2564180625677109,13.90662288130374,12.51281776700415,-18.591826147193483,forward
20139,0.0402768278687261,-0.5794894484773278,-1.2187860076636075,7.775023752052601,4.018644677901375,-9.4895156393944,forward
20239,0.5070294846832752,0.44733723252564667,-2.3490116883426904,-8.543556637462435,-6.8790164848418796,-2.4781164280593324,forward
20339,0.3993650826476514,1.106420149938762,-0.5159481196761131,5.626607385418954,-5.583669828088492,11.695001651638087,forward
20439,0.2772829550125636,0.796424518701434,1.4629828865617514,1.6780448239918466,4.376214472461652,6.225641015725283,forward
20539,0.06823147307855543,0.40995238150507207,1.2910358358383178,3.487864487640749,0.07012405810463998,6.873122031588158,forward
20639,0.7068418629318475,0.0971487071096897,1.4250579373151062,7.822827392279874,-4.753314766066756,8.199776141062769,forward
20739,0.5688301803622394,-0.742837597681582,-0.6713105308234691,-3.114387822833748,-15.185132694866223,2.255919915631651,forward
20839,0.23775654365234075,-0.6523097700163721,-0.826473620006442,8.168854167142829,-12.034067609963154,7.487891990855374,forward
20939,-0.3304905030597001,0.468494148453325,-1.3159709551304577,-2.276643136460293,0.35924046950343197,-6.568239035624892,
21039,-0.08124503553509711,1.673567857106775,-0.475475824034214,-19.026712829384657,19.87751705089459,-1.3579038257530054,
21139,0.1528293855383992,0.8106083807460963,1.4716379021823405,-2.194570516176362,2.8771544355048717,4.857262561271534,
21239,0.15450239678453653,0.3780246268466115,0.22920447694957255,-11.035008156102572,0.23234403910020468,0.1939202496353426,
21339,-0.15982432245966047,-0.18225553263947367,0.04506371508538723,-7.787042323670884,-6.242162816440721,13.08800678003114,
21455,-0.0914967822952196,-0.21473010752573607,0.10560498528778553,-14.400162959218752,-26.625245347057774,25.66874736323648,
21556,0.17440759561806915,0.05757043769806623,-0.9302543124765157,2.399453993161942,27.20242706777512,42.80005879228051,
21656,0.5948821017898619,0.6669201869100332,-1.0381190593898295,6.218953406754194,34.25461787638079,53.240580089629866,
21756,0.2683668042377569,0.6978336499594151,0.006375964772701263,17.143365005381803,0.6789515393505325,22.872317652871523,
21856,0.20781755165830254,1.107824756039679,0.1294353582084179,-4.261460037329444,7.946150726612686,25.395095834139923,
21956,0.6653668199881911,0.8533296243585645,-0.19529870021641255,-5.777350087287958,-4.681785609983797,24.703694567479747,
22056,0.5727493630999699,0.8826745229169726,-0.35402386579513545,-3.381552379766089,2.9229655814852054,23.038335645932438,
22156,0.16699408622486517,0.3082138623870909,-0.1502659647911787,-10.582335661312685,10.015054299797276,21.384128715752464,
22256,-0.20268756835870444,0.19826091102287172,-0.49077042379975316,-1.0548347786229055,-1.034414647438683,3.9864134420949084,
22356,-0.49974429611116644,0.053420916803181166,0.3182663237154484,23.052566345068158,6.983172600816343,5.228895288446044,wait
22456,0.020170900565013288,-0.2046342454470694,1.2197750187009573,-8.766946512004166,-14.365820768071929,-4.506033316695145,wait
22572,-0.29216073587182906,0.552485706217587,-0.05959609830677509,12.26558028697532,7.795618479947482,8.510685498308103,wait
22672,-0.9852867561295628,0.07120017299130559,0.07953881613910198,-0.7046583436740507,1.3271798205972898,17.149703420931576,wait
22772,-0.06121880413778126,-0.3949357218980789,-0.0787315914094448,-4.960286146504244,-8.029607954307425,-13.203751165706176,wait
22872,0.21565167935006319,-0.19937705557122826,-0.0017331074029207228,2.5853920194937876,2.4508082645405636,-7.5798604880295954,wait
22973,0.15991053943838923,0.025399960324913262,-0.10459317789673804,-1.37274742764503,4.0486172555266835,2.8539973194541783,wait
23073,0.2615593709789216,-0.13522124813348055,-0.20050971286296843,-8.124451961122222,0.2479827710611538,5.879326519143541,wait
23189,-0.5161342533653601,-0.26505013570412994,-0.09553484217226504,0.8495266559700211,4.830329844713704,4.5023249508626515,wait
23289,-0.014268873446993529,-0.12359671518281101,0.7437965058416127,-14.73112660564089,-4.825340818411833,-1.054188471972693,wait
23389,0.2592336314450949,-0.2882354887194931,-0.5933879177093505,-12.773643908386719,-6.35153122052555,3.8916168197174783,wait
23489,0.3752972111767158,-0.1262125967696309,-0.4747814120292663,-3.3955824420949416,-3.109293782373388,6.179465948728235,wait
23589,0.21567367198616266,0.11842303887195885,-0.21237375365793704,6.155289640387329,4.968484934829198,15.984911988181574,wait
23689,0.05808054264467209,-0.027387042488902804,0.43316345348358154,-2.2959023489290247,-2.052847292549771,20.134909314671933,wait
23789,-0.21747224584072827,-0.13426803906187415,-0.2785597517490387,6.682737765550046,-3.8057540847744247,20.289922165432667,wait
23889,-0.21050324707832185,-0.04767360532283783,0.017980477848649024,10.02680820158522,2.5605743137011348,14.908882278790474,wait
23989,-0.30885267174728215,0.002256692885607481,0.386593425488472,-4.415979406922642,1.9374580767115754,8.939319996087777,wait
24089,-0.08909322828482837,-0.1255225686788559,0.005635375538468361,-10.976825189657818,-2.9778749663268185,11.797908696768085,wait
24206,-0.39221689139343796,-0.12623510086238385,0.03073065382838249,-5.800975284740209,0.5350058362010427,9.617778054270776,wait
24306,-0.5952114798747002,-0.1554607569552958,-0.21883388958275315,-3.325745892265677,-3.053744494183909,-1.7467264315211444,wait
24406,-0.40648905277606096,-0.13118410157188773,-0.0269569805085659,1.0537139872687886,2.663223946076787,-12.683804722686249,wait
24506,0.03733301123548299,-0.00033230069428682324,-0.10095102200210093,1.737370993348931,-0.003974262962448279,-17.780286975674663,wait
24606,0.033182686622999606,-0.19296996500790117,0.06893558906018733,1.0528794235295778,2.2343301145520638,-15.675552230104186,wait
24706,0.00931311420314014,-0.13564751072153447,0.032229367953538895,1.043489087359574,2.3580058439573657,-11.08284936237028,wait
24806,0.3430340505514294,0.05341580223664641,0.09833528654575348,1.5595049699555712,0.35169831315372474,-4.962108526352169,wait
24922,0.16500957961045204,-0.07298471832051873,-0.10089899955391883,2.494572915090832,-2.157294545337606,4.207246264566114,wait
25023,-0.13237195964958517,-0.20340470365211366,0.21829788300991057,5.022645346739638,3.9669841152271608,5.405645643127164,wait
25139,-0.16313563896473496,-0.059561757645756004,-0.2679331437945366,3.280793856016884,2.400028582825869,1.5156769267120687,wait
25239,-0.09362857015952468,-0.13831380732133983,0.07479425196051598,-1.1213631690163568,-2.6088174339128156,0.5612956612032449,wait
25339,0.04926295687351376,-0.1069172369301319,0.11311258443892001,7.088197431475867,0.2932629231943715,2.9522156531623733,wait
25439,0.07304284171592444,-0.08095277459025382,0.05338321514129638,0.2829427474823203,-3.6773516510200626,2.494991264177495,wait
25556,0.061855531138740476,-0.08357274783030152,0.031085458615422248,4.470734899064519,0.7549070315416295,4.168185693363281,wait
25656,-0.037235724873468275,-0.08470935064479708,0.24991291845738886,1.7630799321065649,0.8370979528364193,5.815828384864049,wait
25756,-0.19599727693982422,-0.2433027065373957,0.034524200892448426,-1.1959524632908927,1.238386507613478,2.6393131613398646,wait
25856,0.10092928509432822,-0.15463468139469622,-0.344364057046175,0.7557395142075777,7.648875280724343,4.93960219926333,wait
25956,-0.06901276421593502,-0.26262583116665483,0.515485762861371,-3.952497283997564,7.862929994217958,3.591912814692373,wait
26056,0.36330066657587884,-0.3336149917557835,-0.2007856071949005,-8.101080761329731,11.55351940562315,16.047917068180357,wait
26156,0.012352755893673748,-0.24924561365507542,0.18195289643108845,-7.9596027841830255,-1.826807944940311,14.718051916022194,wait
26256,0.4539820043023675,0.09044007631652057,-0.30600188542604445,2.5371602117829193,-2.4493278210379636,14.741824389428423,wait
26356,0.6975859588086605,0.2716112477853894,-0.26501111886799333,2.1040559955217066,3.2385344084049574,30.572561932569883,wait
26456,-0.12079627080932259,0.20765162050686775,0.026942951983213424,-0.3396390538851119,9.204018854729744,28.867958451598973,wait
26556,-0.3452067184153944,0.12174239255301654,-0.09171206901371479,-7.254717016553955,3.43863013622577,24.556857453155523,wait
26672,-0.5302832632923499,-0.24820618760474025,-0.23757483040988445,-2.7172801976023835,0.9204228456159899,15.162027872451363,wait
26772,-0.22821130119375882,-0.18528320989757774,-0.0686404055058956,0.9095507852829163,-1.0731277327674922,9.428059304789917,wait
26872,-0.3611241262543946,-0.034769188629463314,-0.11035597920715808,4.85046908436831,-1.1634443913796286,2.1139958417547793,wait
26973,-0.062476978372177104,0.14048333338014782,0.09965046079754829,10.148945644323389,0.10903175046394159,-2.5172685664857264,wait
27073,-0.14998325712596997,0.04706497190520167,-0.40616029574573037,12.774205691445953,-9.267092236620227,-9.720449457874407,wait
27173,-0.12171798876412213,0.2840640482537448,-0.10533785878419875,12.390698253512554,-1.549209420277129,-10.392028661789558,wait
27289,-0.31077878097165373,0.26842458057329055,0.5577110396504402,0.6355106824556052,-5.916656491165423,-20.24928937006026,wait
27389,-0.6635027066167444,0.022927871122956276,-0.05500526338517665,-0.4650142197332775,-10.698120174349095,-32.285300168842284,wait
27489,-0.8431439651045948,-0.1922901660501957,-0.43889585965573785,-1.197779538893871,-16.820679548233723,-48.58031811326807,wait
27589,-0.8656796220395714,0.18631153003200887,-0.08794190282523631,-0.042834210698625926,-10.682753956263857,-62.191727412039164,wait
27689,-0.07589023050367832,0.148568220962584,0.4270774115681648,-3.420695126682374,-13.32923113226942,-69.20820316147484,wait
27789,0.5172969039365649,0.27451573705524207,-0.503922750839591,-3.9797693755797785,-15.720723686180065,-60.249542630978524,wait
27889,1.2044837799362837,-0.010829729311168193,-0.11527473090887069,-3.9474510548613937,-14.546521960301078,-44.76402163150973,wait
27989,1.0072831185560673,-0.1496428644567728,0.18741291540265081,0.1910296655538256,-4.839026809961246,-24.86790256041061,wait
28089,0.2571308870121837,-0.3990753059208393,-0.31739947775304317,-5.641734119996417,-4.864514514622795,-12.302118383940304,wait
28189,0.4099697710312903,-0.06259323429614305,0.4598071302592754,-0.588815560586284,-1.5731971513639196,-6.3432709604980655,wait
28289,0.5422031624604017,-0.08291589135676622,-0.12857494198679922,1.38292590361223,2.626088634446251,6.181681064453435,wait
28389,0.2988881078980863,-0.15066548550277947,-0.11112813262343406,8.815090807916294,10.761642641177506,19.786337440569504,wait
28489,0.29835904252268375,-0.16495368470475077,0.2194464685231447,4.0456388661617355,10.64067999097658,21.71246444689144,wait
28589,0.18120653504319487,0.07750687192007899,-0.10197802696228027,-2.9728033374246725,3.241890806051784,31.045795004308804,wait
28689,0.033515827567502855,-0.20387772799134254,0.030202246040105817,-1.755745803041852,5.621043342566332,29.113957959840736,wait
28789,-0.3242966168556362,-0.2712526436060667,0.20316402676403522,1.5147923104928462,8.608449410993082,24.597971776864412,wait
28889,-0.11424118661005049,0.08200199138224125,0.20123744261562823,4.125297654904301,4.812633251461024,22.86622512413187,wait
29006,-0.46323078456502403,-0.010412672942876814,-0.22944413092434404,3.1372151688135768,4.052116019929023,18.207452129009138,wait
29106,-0.3414682625394314,-0.023058511765301225,0.21615444124042987,1.3805328828034924,1.6131882291194617,11.685483783029674,wait
29206,-0.22968499047551302,-0.11171090094745159,-0.024856793358922002,4.518153487377333,2.2577621457168506,4.619933551294278,wait
29306,0.28849691613465545,0.18241656842008233,0.05224164389073849,2.7906974741040274,4.814953381344713,6.544271901827317,wait
29406,-0.21680618314743041,-0.012688801181316375,-0.0777075090587139,0.37196348442115257,2.513579197116862,12.681577227243178,wait
29506,-0.37127486032545565,-0.2394331716276705,-0.23870588026642797,-3.4610045552862623,-3.335923727902642,3.6064585563035614,wait
29606,0.023129238913953302,0.02019245480969548,0.28223697895705696,0.3220174859915963,0.5028545349522059,-1.9187956520215734,wait
29706,0.08718987888153643,0.029725422308593985,-0.028863106390833854,2.4434391307563548,0.2514174757595975,1.1723921526357568,wait
29806,-0.16076748506128788,-0.1345242057800293,-0.4139595713198185,0.7885248491104621,4.380362531721965,2.121454194885022,wait
29906,-0.2815855293110013,-0.09825608382970094,0.028398996010422704,-1.6701415480702013,7.899733614786925,-5.60852232515723,wait
30006,0.20241905361562967,-0.1372746735319495,0.15530629704594612,-4.700360309431647,0.015129509341812931,-1.0383442473672617,wait
30122,0.3005669278305024,-0.01637245813012123,-0.045727731952071186,-4.485943169025199,-1.4180924132145099,1.687193222054844,wait
30223,-0.062412653564848,-0.07584595297053456,-0.10148644405305385,1.3123977971295013,0.4086149731985286,7.977773648696198,wait
30323,-0.30593524993062016,-0.20768661875501274,0.12060323245525359,-3.399965289107974,-3.54440415325988,1.8355089656126726,wait
30423,-0.18194902397356927,-0.17127178181037306,-0.11354396159350871,0.568600281716309,-0.34096053540695065,-0.050164030874467753,wait
30523,0.07746938945390283,-0.06616188656315207,-0.22068331684172152,-4.74964567382199,-1.6134945204150544,-3.7485051466986703,wait
30639,0.08271671552285552,-0.07308233347609638,-0.034925767430663106,-2.651669400435241,-1.46143124415871,1.6541923093062811,wait
30739,-0.288156760927476,-0.23672888110503554,0.12961129929721354,2.7927864447729935,3.3002492229808422,1.289701078517549,wait
30839,-0.14757025943379848,-0.18685118986666202,0.014343582651019095,4.779892739674568,-0.896161800240693,-2.529787236017302,wait
30955,0.1306270156783983,-0.03434022262766957,0.1829132658958435,3.8365125610411077,-1.8165003357091156,0.3278817636830076,wait
31056,-0.03854709973298013,-0.1199139350168407,-0.01441957049667835,-0.6789694685971038,-1.4482553823629325,2.6459021594548116,wait
31173,-0.1009022144243121,-0.19322817755267022,-0.08765782518684863,2.512467797272854,0.575660883049104,0.61062131303752,wait
31273,-0.06521339019928127,-0.01547039472386241,0.007650222492218017,3.095892310891588,0.6851030851934811,-0.46417101153589824,wait
31388,0.051238275534473354,-0.05579977476373314,-0.13862404231429099,-1.8082507478522094,-0.9012957546190155,1.8581960792711045,wait
31489,-0.025318419521301982,-0.0919815336048603,-0.03739420337080955,-2.018303183935608,-0.9298754005404644,2.450282766861296,wait
31589,-0.13576079837027935,-0.14460662385523318,0.1716629730850458,-0.42175342903642987,-2.067970398589237,0.30628702672452807,wait
31690,0.011186397261731327,-0.09441825923249125,0.07154080312252044,-0.027392913893372485,0.33980692712830607,-0.8988081783789555,wait
31806,0.0299469561047852,-0.06870908682793378,0.14933072976768016,-1.7464481013124664,-0.102163888531788,0.9898484101562902,wait
31906,-0.07499737331718206,-0.0825964501440525,-0.05354980387985706,-0.017394304021053957,1.1228066868087567,-0.5863117092860926,wait
32006,-0.11022672680430114,-0.08878171465024351,-0.07076514257490635,-1.9113424215332084,1.6419706462818953,-2.609945695786337,wait
32106,0.14801175612360237,0.002866933738440275,-0.014370470657944678,-1.4380900331655435,-0.7444891254275089,-0.444390223410586,wait
32206,-0.19615539011098443,-0.14313479773700236,0.0933627588301897,-0.1617301550464543,4.290349603084483,-1.6305792781284891,wait
32306,0.058131542179547246,-0.0593551291577518,-0.10908055244386196,-5.255908686613444,-2.182104780610854,2.040187110036329,wait
32406,-0.12210070447139441,-0.12641191873401403,0.1973690767496824,1.0941749606948865,2.0290733250396604,2.7292533057740043,wait
32523,-0.10703300879690796,-0.13522387848198414,-0.03199906632900238,-5.831115202000183,1.110355465395235,1.2617565334672054,wait
32623,0.02832059701196849,-0.16475436274036764,0.02097615253329277,-0.3153447113376112,0.9050666593710971,0.8587095251439859,wait
32723,0.021655074708163736,0.01511354411020875,-0.09707155022025107,-1.6466051430771604,-0.02478579600262424,-0.31721039351765606,wait
32823,-0.09301840237192809,-0.06785407743379473,0.06717968530356884,1.0114864494468907,0.24342924936015026,1.1090470572823545,wait
32939,-0.07688852082602679,-0.08406389234811067,-0.09419511800110339,2.04051773388084,2.238457256358044,-2.420390870845558,wait
33039,-0.04471263662539422,0.023308833264559507,-0.0020335516542196275,-1.1576713874270868,0.9031882506276379,-1.201669971956428,wait
33139,-0.032376704002358016,-0.1292309216775,-0.15918810691535473,0.5823725577648464,0.8736501370665657,-1.710750437780512,wait
33239,-0.048540816611424085,-0.08316329024657607,0.15288053120374678,-2.034441640283879,-0.45410507360744484,-3.853877036345396,wait
33339,0.0804347420655191,-0.06763064394146204,-0.04026654393672943,5.40235648015498,0.5790000451404469,-0.4743903619164125,wait
33439,-0.07623791143018752,-0.07218713820204138,-0.16332009215354917,6.87499734540215,2.0376887549039853,0.03685807531934244,wait
33556,-0.15036018241327256,0.09842091900259256,0.6755898155778646,1.5752066143620784,-1.1972624722293599,-2.802995656591458,wait
33656,-0.1070481698334217,-0.18511808246374128,-0.11133154624104499,-8.680912595445038,-7.52604884265365,0.9979104879761382,wait
33756,-0.22653913019783795,-0.18551862608864902,0.19529811569452285,-2.7108250285064868,0.6162649169218017,-5.717891156128882,wait
33856,0.07289240039456635,-0.01321560153439641,0.027604630762338638,-2.8394968278462414,-0.9051362419232666,-2.988392817318404,wait
33956,0.11880546231828629,-0.10671353105157613,-0.07321896546781062,-2.9090219637380357,0.45010615793096104,-1.0041436759240097,wait
34056,-0.023516228937543928,-0.13852701168060302,-0.08551847507059573,0.47317736300850055,0.2522928338708434,-0.47120173079107436,wait
34156,-0.05708817060645669,-0.06944310019090771,0.08237433182597159,1.8943403731417543,-0.3329821274044353,-3.2660105518886264,wait
34256,0.12812679636050014,-0.011846943529695272,0.013845570001006125,5.069532887844483,1.802086502126273,-2.2589877377860446,wait
34356,0.11695124928634613,-0.03023775574490428,-0.19599428126513957,4.255498562844492,0.31233158405743067,-0.708934842507272,wait
34473,-0.1017987248726189,-0.1594350674137473,-0.2750204717069864,-2.3250382283810067,0.2026638255878845,-1.9067898870079834,wait
34573,-0.04366447927933186,-0.0879641146570444,0.19406594355106352,-3.3364312963353386,-1.2154528668146907,-1.4323362391200425,wait
34673,0.03683200291078537,-0.05821165821105241,0.02329144373834133,-0.9453848391548593,-0.06773093057419675,-0.11398929386260725,wait
34789,-0.06793802939020097,-0.07652575192824006,0.005904255607724189,-0.6723094471869595,1.3020028895429765,-0.0804357494410816,wait
34889,-0.13027155330423265,-0.03968669822216034,0.03908873232901096,1.6120008434209372,0.618890964575113,-2.5075790893744174,wait
34989,-0.08572839149422944,0.004417524181306362,-0.12570786211788654,0.16304819479328164,-0.9367971569340376,-4.644614439860119,wait
35089,-0.023035057824477553,-0.11940101705864072,0.15271043533384798,-0.29457813481599565,-1.220390026367552,-3.480246692282069,wait
35189,0.047757447681389745,-0.14171075628325341,-0.15301555576026438,2.1326949787115703,-1.046500026844786,-2.3605588406030695,wait
35289,0.05738835912942886,-0.007348755327612162,-0.06661620620191097,0.44264300232395853,0.13640925641104187,-2.725716335000995,wait
35389,0.06581066197268665,-0.12222265035063028,0.0913888284087181,-2.786919525719364,-1.5042764872136711,-0.12947245225695347,wait
35489,-0.02794098657723516,-0.1928944155536592,0.2376116552889347,2.441016974921939,2.6028766634387854,-1.4977459725934927,wait
35589,-0.25477219505682586,-0.018790186796337364,0.2063145997494459,-1.633467274208641,3.890848423435852,-1.0008651851224035,wait
35689,-0.17988244683258234,-0.5599446439214051,0.48417760140597815,-12.647466408754488,11.09707152376954,0.8177493075782426,wait
35789,0.4758680382221937,-0.33646672792509197,-0.46452772904038425,-16.40169013133575,13.809972289453475,9.612938011470176,wait
35889,0.7124801610797643,-0.45156347191855306,-0.1978840405344963,-7.916153389551636,-4.390806744736561,25.37498434212882,wait
35989,0.4053376542512327,-0.07574738796688615,-0.2689437821418047,12.948335387919904,-1.7465133082746989,40.1110099009519,wait
36089,0.1268262716885656,0.2524463093925267,0.1701122365117073,9.786396641858174,6.229483850907061,30.99603024601609,wait
36189,0.029046646264195442,0.6512272354766726,-0.04979834239184856,8.902751163271528,11.376389548556272,30.40237069392609,wait
36306,-0.46126821578778326,0.35410452981591223,0.1174789629548788,-7.4461330680435625,3.6957748056457027,27.736949134483854,wait
36406,-0.608426131561026,0.01225881226621568,-0.4332511317670345,-8.503909096877804,2.966825641240442,15.866157196629855,wait
36506,-0.41850959930699316,-0.160252521276474,-0.08147592168152332,2.4819443222023017,1.9197977688388612,6.2396266818245305,wait
36606,-0.3559307588623836,-0.038796252188459036,-0.20580372761785984,4.283895928092467,0.8142619623984222,-1.4265558713698019,wait
36706,0.09294151947712526,-0.08541779117509722,-0.24757833802998064,4.2705685214744795,-3.628783029605748,-4.97314483139044,wait
36806,0.41234665623046457,0.028522183998674153,-0.39116438666582104,6.307461559340158,-7.768269548737105,-4.911165560427628,wait
36906,0.1535645314125344,-0.11102598742321133,-0.2744078927665949,9.082866666779351,-6.584309616968285,-4.496726330177356,wait
37006,-0.48187184521425513,0.0999658103570342,0.5370213028430938,18.970604532900296,6.832679200852044,-12.789121970819615,wait
37106,-0.7873287735760212,0.33215003376975655,0.17514964615702627,0.5336047936475439,0.9337356313602851,-16.47312537231762,wait
37206,-0.26161880954857913,0.1446330734707415,0.31020518233478067,-10.999120634656032,-7.598082578961543,-19.327750001958385,wait
37306,0.14029066035225987,-0.19768866409286856,-0.1399269416064024,-2.0084213943104805,-7.804233909811807,-20.049957129322607,wait
37406,0.09304123525824397,-0.17287424857094882,-0.16903671623468397,2.953608371422821,-0.9193682217194575,-16.407809980832084,wait
37506,-0.10064875111989677,-0.04985957105979323,-0.18078502169549465,-2.7556129267717875,-3.514906487225299,-14.161272824129325,wait
37607,-0.19231975747086105,-0.06773425044640899,-0.10232172583341598,-6.399299429146503,-2.7562632888468195,-16.651309639837624,wait
37722,-0.07392488524746149,-0.012272183204442262,0.0969137293100357,-5.161337887365447,-12.558930081638199,-18.703313617468307,wait
37823,0.09634301674999296,-0.04538885538652539,0.04856500120460987,-1.393258058835755,1.3659684648937922,-18.850907175243115,wait
37923,0.43567883383799344,-0.11548413587585091,0.08784954836666584,9.318404032759947,-2.394693351310443,-19.75873493858619,
38039,0.4713556753642857,-0.26237828614637254,-0.5123597397953271,16.926658470942932,26.614494629304176,-0.7283361549272519,
38139,0.31528979212269187,-0.4526102044925093,0.07212707857787609,-16.583209238718013,8.241038167612462,-2.289374822516608,
38239,0.26557176669174803,-0.04596519396975636,0.031472412106394766,-4.316177963430886,-2.6433515106866348,0.3444343002497104,
38339,0.21516185000650584,-0.20628990369960665,0.03199146754443645,14.604182417274327,-3.4926654702970334,1.4470754671838126,
38440,-0.09762114692702889,-0.07325710552111267,-0.18890052361190318,27.746198918167345,25.32062457407198,-1.3984192272490517,
38556,-0.1921472139155492,-0.1877745883218944,0.18083353701233862,1.2243989205235264,-1.4265144633479587,-1.3767677410235228,forward
38659,-0.379461345118843,-0.4718004965223372,0.1574719506472349,-12.543605698461628,-0.7516710693397773,-2.5484524354716545,forward
38772,-0.764422091371566,-0.8469833240717649,0.4615718018442392,-8.895506040109439,2.634859237670782,-14.070686586488385,forward
38872,-0.716736649480462,-1.3122295766450465,0.20108897405564785,-7.967892926288129,-2.1645710446811965,-17.302134460186043,forward
38972,-0.45886279861386864,-1.6267754185326397,0.36876550785303114,-6.2839926024651716,-0.21423507317638527,-18.21930762986099,forward
39072,-0.6315078780714423,-1.8708328889600931,0.7686018612742423,9.650201816034473,-9.382837476068909,-17.538416316786172,forward
39173,-0.08812427365481854,-1.7670647637106478,-0.3422580246776342,-5.107324324522163,17.37928315440863,-14.060117722521436,forward
39273,0.20980507221370934,-0.7839044982157647,-2.1368390102148056,5.260683415730106,-3.388014379051156,0.11341550461147329,forward
39373,0.8689870660871267,0.4792703940115869,-1.936825556436181,12.082623424772773,-16.134740725362267,4.308011618504489,forward
39489,1.106157115088403,0.7443168764539062,0.909268807592988,4.05801815714556,-3.424615868709373,15.1499930791338,forward
39589,0.2592537243850529,0.30218641879111524,0.6491659190326928,-0.22188384451016818,7.400801102522188,3.129331636407501,forward
39689,0.047728769576177,0.20608137551546096,2.0592419757932423,-16.40689985812518,8.36291862448311,-4.911948043974418,forward
39789,-0.44734048392865805,-0.4639838314220309,0.8973767097473144,15.632211264725871,-9.86042735472465,-3.193808835615833,forward
39889,0.31002200778760014,-1.1703079540900885,-0.5658545986175537,3.70310957504065,-15.715075119736465,3.006596552116957,forward
39989,0.14779188456153497,-0.309912775259465,-2.526674778625369,-17.201471132198396,-4.069621794771765,2.4955686286057728,forward
40089,-0.8118189986448735,0.8396509353570639,-1.764256574422121,-9.551722441033936,6.23907898603046,-19.372600439143273,forward
40189,-0.9738546039458363,0.578878184711188,0.8217582819223404,-15.660180889377072,3.3678081181653194,-45.444236755856714,forward
40289,-0.982724942817539,-0.0784885764338076,1.495039236035943,9.849391476573201,2.2026318469442696,-19.755470108162925,forward
40389,-0.9826169523984193,-0.4052246223308146,1.4255577035307883,4.460768372405002,0.9483561848872264,-28.547690881417076,forward
40489,-0.33410120437014845,-0.9488384553067386,-0.1062596498042345,12.339886768729535,-0.7969955643417472,-16.101846534319485,forward
40589,-0.753666596340388,-1.2838368642449378,-1.0205559301704168,9.676412666974397,2.5449566592770774,-20.8322801666667,forward
40689,0.16633355822321028,-0.9749382344640791,-2.379033317118883,-2.0641104879345336,-7.3873498987254935,-14.862710200001187,forward
40789,0.600391585926339,1.364734693777561,0.565932340028882,27.656860043823578,8.826025940777484,13.760617342510963,forward
40889,0.264044758053869,1.0922019472330808,-0.18373744176030157,-2.2197529967593757,-11.809824815548819,5.984450814432854,forward
40989,0.04419084124099463,0.8623875216916203,2.505368955746293,-0.8195921779936767,8.10506446916314,-1.6237544250437654,forward
41089,0.023911475332826376,-0.10263298373967408,1.6186381431758403,-7.070123470271544,-2.371281170382932,-1.188383333030049,forward
41189,0.34032822565883397,-1.080138584473729,-0.7888964612841606,-4.843885635782064,-15.865651762631273,-4.07572969143705,forward
41305,0.4121113861698657,-0.691429628136009,-1.9634458523362874,-0.6620855611339496,-28.657137832677357,3.67737726422945,forward
41406,0.023789867380307986,0.7055906938269734,-1.2784995948702096,11.654944299703256,4.35621781300597,-3.6619884211425884,forward
41506,-0.6922456937592476,0.8269232634700834,-0.04816752631962299,4.613053843252782,2.3529683660010696,-27.043845443173055,forward
41606,-0.48277394515313204,0.31618498739674683,1.4039473447471855,-12.304113652951594,5.1317123687273405,-29.874656618272567,forward
41706,-0.7221705841626972,0.23907412905693054,1.1390706659138201,7.67811702810846,1.0710773953560189,-14.15871406451151,forward
41806,-0.7297494219191372,-0.39301132970675823,1.5413813004940746,-12.43256560557744,13.130130264189901,-8.33647640088505,forward
41906,-0.30785284705497323,-1.0252782825171947,-1.0214286213517187,1.9432586148642088,-1.7627079002402106,-14.102132777427125,forward
42006,0.7774806026481091,-0.4162004821144044,-2.5556957059264183,-3.013744558526787,-0.6538628137860476,-10.868229450722847,forward
42106,0.6268207431685179,0.9777307877920567,-0.35523207254111766,16.576662502398555,10.863007771102373,8.202940226195777,forward
42206,0.4931435826718807,1.0719961945503949,0.6671884824573994,7.083417579717327,-4.774292411441981,13.12948139621875,forward
42306,0.275260162214376,0.3509127480372786,1.4097732744216918,-11.71769410138181,10.47502058284709,6.002947393592072,forward
42406,0.1457881617899984,0.20231047867462038,1.1448258684396744,0.17975270306901722,10.910771283968272,-9.029220653490777,forward
42506,0.030561507806554436,-0.6471459575124084,0.6818979758113622,11.038130406326914,-7.5315778807867755,-9.814449082553063,forward
42606,0.013208632937492802,-0.26730449050217864,-1.1366893237352371,35.019486365300914,-9.969320206888517,-9.788588278808101,forward
42706,0.3967340765569359,0.7381897718757391,-2.391886953473091,18.5400277000754,-5.862175914137639,-11.35718220283655,
42807,0.3239236918900162,0.6766466311544179,0.38077217198908325,6.071961332513173,1.1912720761621414,-0.6595580709759276,
42923,0.4236986193174496,0.8269608190014958,0.521746576821804,44.71457106191883,16.80318231112744,7.896403897566544,
43042,1.8270051454104481,-1.2348936773777008,1.2424877857685088,-39.61395312938798,15.07154494142162,29.747297495913923,left
43156,0.2229297805942595,-0.5978583411216736,0.48832536873519417,-12.277907924653547,14.554725017494263,27.132851345794784,left
43256,1.1367896423045545,-0.6116334762349724,0.12064765611886978,-5.186576717009114,23.808780984309877,45.59678220077978,left
43356,1.6752891279414295,0.008415069384872912,-2.1517004792600867,-1.1643410671516043,6.656298103272927,57.050172740717834,left
43456,1.634108684030175,1.5489318620041013,0.2898100445598364,-4.113938623427747,34.318797748916815,73.67621921836287,left
43556,1.7594991507619617,1.444507026411593,0.14534955117702483,-21.5486389445541,14.53779127099451,76.23148177932386,left
43673,1.9543905853517352,1.3823714727550744,1.0608961238652468,-15.661364219650778,22.171806621405842,96.17536777838346,left
43773,1.3027518464647232,0.4737187512338161,0.4120242193430662,-4.212710415902125,12.003218206803144,89.6069797592573,left
43889,1.3229112757876516,-0.39163638809174295,-0.5322755696207284,8.086829571626499,15.13021626639203,73.4864355820849,left
43990,0.3626658758036792,-0.36333734532445666,-1.3372826232284307,16.868542098842585,14.773613797372954,69.90316807933446,left
44539,-1.2469491490915416,-1.0012354358896614,0.03836217162013054,3.3868474839201417,18.306592324811874,15.330199082648123,
44639,-1.2986090475715697,-0.7032018989942967,-1.1103846696555615,18.414140483482893,35.73738364329886,-1.7000288550525904,
44740,-0.34889841254018245,-0.5694293883644044,-2.0033347951322793,-10.843389760258804,15.013817890103963,-5.855109656554438,forward
44856,-0.08483648415580392,0.7031555756345391,-0.04764788635969162,10.029536008384994,10.712403807450883,-10.77747587344724,forward
44956,0.14524594467207788,0.7748976004175842,0.6471943266987801,-10.54896847966988,-2.2006391392539184,-9.800277293798931,forward
45056,-0.3330058103488758,-0.1754987518556416,1.0643073936134577,-19.69034254687956,-0.30021760323417834,-30.541388949197945,forward
45156,-0.45270084191802884,-0.5897283722884953,1.186235152670741,-3.4359531289579484,-18.438730872042232,-31.25210428328362,forward
45256,0.3425833111092448,-1.2802932002887129,-0.26654724239408967,2.00703102392756,-28.07704645137359,-12.45345147028569,forward
45372,0.16040674372380598,-0.8205113506011664,-1.5678905372351406,4.668761719897053,-32.18547012393338,5.6766628536382155,forward
45473,0.029632446795515716,-0.2803286611177027,-2.3290409134596586,8.859324820528588,-6.210640212760643,-0.7806216265496697,forward
45573,-0.44171354742497204,0.7801606355123222,0.9260714738339185,6.339160467278187,-11.683677197994207,-22.425531073598894,forward
45673,0.5659171059271321,0.7070182424120605,2.29530055642128,12.100177010939706,0.06575449794397721,-14.85857793555333,forward
45789,0.13551248616501688,-0.06229512813240289,1.5464415064930914,2.3872706432299315,9.28718750693205,5.622872125716603,forward
45889,-0.2871895963957533,-1.1174681981757282,0.41510581874549385,-1.719981118278667,21.322236956588394,14.698088980625538,forward
45989,0.4114584386864677,-0.7581020945698023,-1.2959545875400305,-12.427412227848665,3.9624458814105106,6.851843857889453,forward
46089,0.8951062805972992,0.2174244611762464,-2.8538848717749117,-20.922547946737588,-4.027563197410119,5.727919581377753,forward
46189,0.8038505770489573,0.9208099000439047,0.6477151357024907,37.27213056489531,-10.928105450308118,20.115373266098405,forward
46289,0.6860393133997916,0.7307701432690024,0.3954793272554874,15.480878178380483,7.054490021035031,27.482550201110264,
46390,0.3633336189974099,0.5620405932873487,1.2437637970536946,30.04397700779718,25.933046655812003,31.323097269516737,
46506,-0.11783395040500909,0.32852731322795153,0.1284188746422529,16.149126811301606,6.939224602375542,6.983884221150493,right
46606,-0.6897466434851288,0.5363248450115323,-1.5698919401854277,-8.135527966635044,4.028386235205106,-38.12066887114809,right
46706,-0.7654512882888317,1.3597025448292492,-1.7380115415751933,26.21553474214727,7.6756214477404665,-41.874885763540185,right
46806,-1.8751818779498337,2.5004931664034724,-0.9634019643187522,-5.123715924756548,-10.613874059805218,-81.49677215764913,right
46906,-1.5327780150607226,2.312240000784397,0.0011947627425193785,0.9100235624395281,-19.130934685929883,-83.9539600323179,right
47006,-1.6582573291197418,2.1529323591426013,0.6653016457974911,-7.964684444925515,-23.752993706716502,-113.87681388046866,right
47106,-1.559222516002506,1.508762056440115,0.10214812283217907,14.941026856571845,-27.392330232363566,-104.61900472470413,right
47206,-1.7339359626993536,1.1834832236140966,-0.28269582864046094,26.218854214083894,-19.98441121895258,-99.11865338609286,right
47322,-0.5464285250704736,1.123024663259089,-1.764282293385267,17.21785334092267,-31.27220553001097,-89.01652356588804,right
47423,-1.4112408627562225,1.6613614326149224,0.22279928608238694,19.571869500631102,-42.14804893411109,-88.29152630624786,right
47523,-0.7467887464601546,1.6953583947628736,-0.586740150257945,10.100674989911617,-60.108806583130416,-114.91248229450686,right
47623,-0.24248159941285846,1.6743690904870627,-0.13406418705284595,12.062203720475374,-47.47461293948055,-132.65022402184152,right
47723,-0.32869017563946545,0.7099149867668747,-0.3111895171970129,8.794727452679545,-45.14148520580131,-126.52120841164394,right
47823,0.10437105957865714,-0.2159177098751068,-0.05357201571166515,2.704235390061305,-21.82098761506648,-120.39584012246314,right
47923,-0.16579466557353734,0.5845055230736732,-0.2492833883821964,5.1262396796548675,-36.924187068196524,-98.47821386837744,right
48023,-0.32216749587245286,1.501317001131177,-1.4534125096619128,-0.05657182887321075,-55.93989134018641,-88.40373265393282,right
48123,-0.12157722858656198,1.6819325114786623,-2.4070611417293546,-10.877261522126542,-34.06265540975758,-87.86915423816343,right
48223,-1.544609322629869,1.0854510116681455,0.4742395602375269,-19.963147132519037,-31.145170841637903,-123.6964607369801,right
48323,-1.0408454156138003,1.0123246929198504,0.9305185163706541,17.857259792526122,-27.301813150387975,-116.66288219386271,right
48439,-1.0993766611680387,0.7532689753249288,0.7941875534296036,7.964191817531628,-24.894825458571507,-109.29017792826502,right
48539,-0.8873615116894245,-0.1746048717558384,0.9919190337508916,6.58664426100396,-15.658661172286745,-77.33185940555876,right
48639,-0.8332290856160223,-0.8285691309809684,-0.27128128517866135,19.00102448791624,-15.964513628225331,-61.320523123025694,right
48739,-0.36343912519849836,-0.37590193560421464,-0.8356500291526318,-1.3838157491950356,-16.080357051643333,-64.7205981220472,right
48839,0.06211399941183626,0.8353890401288866,-0.9491384611666202,19.401714120480452,-0.014826152893129163,-47.19816103282429,right
48939,-0.3445579721830785,0.5328519082039594,-0.23915011690258978,7.75873375088212,-8.117898394613595,-45.514478421281126,right
49040,0.2975841856926679,-0.5312216766536235,1.0527116483658552,-37.54571037700559,-51.70214145078702,-42.11717647906263,
49156,0.3594333601558581,-0.49644496230483054,1.0538111340403555,-17.962926234080804,-37.97071889810963,-21.407359896666968,
49256,1.0722064032349734,-1.182296351917088,-0.392052275416255,-1.1587443674570135,-22.86516644481052,-16.926798489820918,
49356,0.240416903701704,-0.5953536648243666,-1.3334089966654776,36.306632099295236,-5.460773807465629,-2.00699687298171,
49456,-0.45842820658888667,0.21072657097280023,-1.1928256369769572,-25.25589657885506,2.158895584367739,-33.03946916642758,
49573,-0.5750344052972272,0.29156638670787216,0.5577046099096536,-32.81417879174929,-2.040066941395619,-11.70391163341037,forward
49673,-0.20596257144138216,0.13555004169642926,1.1686655937105417,-3.143546540730767,-0.3104036564424888,-11.381341435704531,forward
49789,-0.4288204923758283,-0.43036666237190363,0.8660112651467323,-10.555653527320029,2.2905500419406737,-10.411510922623373,forward
49889,-0.933541298257932,-1.4112280032746494,0.1331821435213089,-6.6721714629040365,1.4318321925036368,-9.610639652814466,forward
49989,-0.4770542523320764,-0.9471043249905109,-1.405768714955449,11.360148212483628,-7.9003876053999536,-3.629454522578525,forward
50106,0.2571104287460446,0.3802164378024637,-2.3094243588417767,-0.0748678379266254,-2.824615980078899,-3.091421738636403,forward
50206,0.5537368753224611,0.6119146312639117,0.17379706250429153,-3.123649132461462,-12.075188763861215,4.726080240524976,forward
50306,0.33290443233363326,0.37486689346805213,0.41166356933712955,8.240973280815346,4.310878163521779,11.077048824217647,forward
50406,0.3440938252700493,-0.023934710077941415,2.2117326308965684,7.736837871950352,-3.968697212048365,15.13119981363251,forward
50506,0.7291920802973211,-0.5270997744180261,0.9656763389915227,6.7510516100812215,-7.290546481392549,13.926203326106874,forward
50606,0.24331426911102608,-1.1777172074332833,-0.9479986434817314,-3.5404691105243065,-13.68154765758431,1.9448809982354982,forward
50706,0.03602475991481915,-0.6559985415317118,-1.0327975721061229,6.892925311312965,-7.1522270398501515,18.08599770518797,forward
50806,-0.6473463754553348,0.44964463268518445,-1.8378356053739786,-1.6363187714654155,5.28797044835113,-13.30893010250885,forward
50906,-0.6462975239895283,0.8797408075526356,0.49377778892219065,-11.1549112732085,5.998605954600882,-12.650758559934435,forward
51006,-0.349292307228595,0.24189532395750282,1.9770435850560664,0.21729326369683202,8.619329902340912,0.21405648774197322,forward
51123,-0.7921690532140433,-0.4204577011674642,0.9421160151839256,3.274005928642361,7.857965300465005,0.14489264484488862,forward
51239,-0.6555255171924829,-1.242855888428539,-0.2756523398697376,2.4979873693456036,4.608898526916476,2.7586521475090318,forward
51339,0.15403543685991317,-0.6459264987200498,-1.5801239958643913,9.245324423735395,12.600308221403782,-2.92300037276129,forward
51439,0.2504207949142903,0.19304522220119832,-2.8442379225075243,8.744190029236975,5.065912460697553,15.911676992353405,forward
51539,-0.014413396484218537,0.7940159962549805,0.615166618797183,-10.060382850224064,-13.929956515055796,14.005658062947987,forward
51639,0.15305037134531885,1.0784785423070191,2.0362591596126554,8.413065873369343,3.8375878889485615,5.979593269272505,forward
51739,0.03826207224652171,0.3180895058438182,2.2282266695797444,-6.22430912883713,-15.478958895223709,-1.5880503582094643,forward
51839,0.062005314872972665,-1.333268419151008,0.31121348259449005,-8.235008818122633,-9.538072307977666,-3.8022890444311126,forward
51940,0.20003425910463554,-1.0810260348327456,-2.2037492309272286,-6.831687115875099,-11.854853691425774,-7.578888039846515,forward
52056,-0.5054955531142652,0.3943634749680757,-2.8646593637675046,-9.039694748582992,-4.801402286031408,-9.889678493618876,forward
52156,-0.9990849798575043,1.0543646762698888,1.1412889264851809,4.865098068910008,-0.8709635248452234,-18.67045699246596,forward
52256,-0.42612763656266034,0.4664619119733572,0.9713684131532907,4.264452513959556,8.90359383786038,-18.04286506057934,forward
52356,-0.5996645137608051,0.06164221718162298,2.027064045765996,8.43868591294606,3.756075557619983,-2.1874504708534466,forward
52472,-0.5174748177867382,-0.7754834374815225,0.7400713478386401,5.149656556337433,5.538245228126499,3.7751334929516114,forward
52572,-0.03865143689028919,-0.559276097010076,-1.8026964874535798,6.399599103696338,19.064113237732354,6.886362353294229,forward
52673,0.6211728734746575,-0.09580898293852806,-2.843577997294068,-19.50850925079548,-3.0189781909783093,21.766330733780745,forward
52773,0.34218126964699475,0.5214120841704308,-0.08761632413268089,-3.3591617390063178,-17.55218768570021,35.68078528074155,forward
52873,0.18715269356388597,0.6531625874534249,1.6626239998966454,11.331849884978618,6.9007313637606424,20.30405211927813,forward
52973,0.33451420561783013,0.48084305015578865,2.7543647593587637,-2.7784592692152454,-4.209761908614794,13.99110292982669,forward
53073,0.13669369530621917,-1.041145129212737,0.9279325915306806,-4.338552809378202,-7.682794853916272,5.2641843145665606,forward
53173,-0.14901805622247047,-0.906270648690313,-2.119381094935536,-11.613936697700145,-15.749693933544675,-10.374181377488314,forward
53273,-0.2644622345472686,0.06449819113463164,-2.228740464320779,-13.721826136893522,-18.33558818538587,-7.844024884369008,forward
53373,-0.38950701138023286,1.1865386656619608,0.10584639282822608,15.329623639210551,-2.230655472778597,-8.686810463793345,forward
53473,-0.3204506820172071,0.4565979589544236,-0.5529600457310676,-2.721211825243372,15.05518834590673,-11.846734304049921,forward
53589,-0.7990018218435346,-0.11600903653278946,2.3384224897891284,0.14931975468539402,8.957980926673898,-6.7364678755427745,forward
53689,-0.7308477385498583,-0.6481257623299956,0.7161714168131351,1.9650548157227772,7.2999542132005955,-12.211422009498998,forward
53789,-0.389846362869814,-1.0937582367643712,-1.2199205646514892,5.866561322471611,-9.3000453380446,-4.963659406180585,forward
53890,0.304570391318202,-0.5515443337142467,-2.449718380194902,4.571865241236667,0.9538784995528875,-4.760065554287667,forward
54005,0.7060998123928904,1.1150298651129007,-0.11488543933033943,12.685217718070795,-13.117003494378784,12.36121659573384,forward
54106,0.5442090589227154,1.0698816866144538,1.5439561194181441,0.8037644952526415,16.766108044312613,2.0996496697334024,forward
54222,0.6128163293439894,0.6820572580263018,2.077483150404692,4.627528721651332,1.5326656348903003,20.69602984555599,forward
54323,0.30113040693216026,-0.38841128856539725,0.7680868974894285,-5.952537609309616,3.0487744643456667,19.08100088045521,forward
54423,0.19600664755636826,-0.9761799050882458,-1.1434843907028436,0.44650592786685034,6.952044440560833,3.958555234904542,forward
54539,-0.11191000371612608,-0.3093365828067064,-1.924363549748063,-8.544710939432168,4.3824679375336215,-3.0191199174035868,
54639,-0.9326805167101323,1.5194544231072067,-0.46548166876435276,35.573899650420024,42.632729402898946,-14.289411441826996,
54739,-1.7999352060467004,1.3909467011377215,0.02186053415238857,1.9337095835177078,6.44579935701595,-34.11614262114796,right
54839,-1.7152444139719007,0.18116247670575975,1.69885266661942,-3.512257867931215,-4.994425139523261,-44.22455963048378,right
54939,-1.4499375270277262,-0.34711949323415753,0.5582300950884819,-3.389906981781484,-13.724115957812769,-55.73185402335158,right
55055,-0.404942663584277,-0.8446114803738891,-0.44731297486722466,4.265223044675298,-24.48769325007268,-49.55631457962245,right
55155,-0.25039200721122323,-0.06611337124630809,-2.102916866868734,-4.352065484877425,-17.343561265049463,-50.5041467609343,right
55256,0.9321014747131615,0.8098195684559643,-0.48820086557269093,15.49343377362226,-28.712715081953753,-24.95121891545372,right
55373,0.7326081723511219,0.8434612874254583,0.14138415467739104,40.451750963170916,22.186996962119952,-22.94802005453736,
55473,0.033179289089515805,-0.14704831791892647,2.047443985971808,-10.77186401927043,-5.382487032972589,-1.2423341435103337,forward
55573,0.7181529460191727,-0.8782394630789756,1.021217608949542,-7.804021320173891,-13.722009698227465,-4.07311714407952,forward
55689,0.9638568684794008,-0.7034181720934808,-0.6439233422040939,-0.04884613786998586,-13.473531685090633,-6.076338629997505,forward
55789,0.08600527220685035,0.3737837744064629,-1.8715286161392926,-14.403349242466565,-12.469453749737385,1.870522436288862,forward
55905,-0.4069200280718505,0.5076876563310623,-1.3079407934099434,1.5911800789532111,18.89355999906255,-2.627081573196841,forward
56006,-1.3651749848909676,0.0260388427503407,0.849381617385149,-19.615594664150233,5.074676874063148,-21.90055590380254,forward
56106,-0.8405215807117521,-0.18334961148649453,2.687149418219924,12.099749270342935,-6.026746333981335,0.20450514853858476,forward
56206,-0.581595298182778,-0.23164529423043131,0.5602998870998621,8.861934806565179,2.794164648881455,-10.661768200038994,forward
56323,-0.2619156370706856,-1.3673901767224073,-0.6177028592765331,-0.3065984940228512,5.391382073706062,1.1980206232272315,forward
56423,-0.21800174960754812,-0.6581300006024539,-2.3576544290035963,-17.231296860756547,21.452522815006386,-13.157509077477899,forward
56523,0.102339407620579,1.6045342144995927,-0.46082595191299913,11.915744827876438,10.612558394616345,18.281580172071287,forward
56623,-0.004027063558995724,0.7701331624947488,0.5123018721282482,-6.429295485547084,-17.755368738035163,20.556314910988796,forward
56724,0.4577464714024216,0.5137687298104167,2.5984014597088096,1.9582523741962676,-10.006555836922487,22.9530214605571,forward
56840,0.2621955499906093,-0.2727373292058706,2.0580495511382817,-3.3510242089404825,-6.239472575681382,17.427584544671667,forward
56956,0.3621727585244924,-1.266438716328889,-1.4588824655055999,-14.83926045303324,-25.336458660115362,-0.7477512344472775,forward
57056,0.02879697321890853,-0.10027443791478871,-4.053276443138718,-66.6192677679057,10.388015925652175,-27.350292125569432,forward
57156,-0.42079807557035237,0.977560691922158,0.084792498883605,40.6535113361585,-11.57159293994065,3.136131089726249,forward
57256,-0.3117331590870395,0.7093883325442671,0.9176584502756595,17.59437947175067,8.483183741615047,-17.58856015057782,forward
57372,-0.530341861611791,0.36496494652628897,2.636249252066016,11.681535079915761,-7.7995842585343205,1.863238252982455,forward
57473,-0.38037173796202983,-0.09132190065234899,1.76319508267045,6.602305457883976,4.068731308858725,3.621018385179913,forward
57573,0.005460092036798596,-1.242744683139026,-0.730489280501008,-6.9355106870143475,-3.901409603439984,9.243343668876092,forward
57689,0.4166697801265865,-1.3117631281770765,-3.085909666842222,-17.85201932988543,3.0170998889565555,21.957367709771415,forward
57789,-0.004891754096932709,0.835089034269005,-0.612887567949295,26.749185959736828,10.813634894913289,36.145938238692345,forward
57889,0.15332014646371825,0.976439578937739,0.06437398023307322,-5.547109106121884,7.588434082985254,1.5744151661920032,forward
57989,-0.029771270744316278,0.9767550746276974,3.3373657230883835,10.363333329539042,-1.839509535475596,14.664692770678762,forward
58089,0.09088398415911943,-0.26441709849759937,1.6480512846648692,-10.115214755107282,-2.8832463239142885,8.794612193237302,forward
58189,0.45492045419625937,-1.2348229502290486,-1.2890543066322804,-11.960882133006466,-19.411684489121377,5.1570233422441145,forward
58289,-0.2314653528199531,-0.17332593786120415,-3.153915281575918,-4.984959351107269,-26.567163125903278,3.9232034564210254,forward
58389,-0.3686274145565927,1.0143186432160436,-0.9494909278661012,35.85297093462299,16.351252599409793,5.089585896360817,forward
58489,-1.2709491794906556,0.5052713889695704,0.9782073192626237,-15.45567136524855,4.03221071425349,-32.83270909496754,forward
58590,-0.909529796616733,0.25630992601811886,2.9979455521851777,7.953462444119184,5.6717523745118,-25.542470825861287,forward
58706,-0.9725067695334553,-0.6053541037045419,0.22476327963173387,8.354135854984118,-5.052584200305919,-28.718206554046443,forward
58822,0.002690627323463559,-0.5743471171528101,-0.5853203465878963,6.789112412344294,0.6197632544373176,-20.776436540012675,forward
58923,0.7624610204316675,-0.38724984357059,-2.602199682947993,-24.154096565725503,-4.486084468563654,-2.541922347738299,forward
59023,0.9127261084400117,0.882315626476705,-1.280013506564498,1.0817699497799682,1.4864209853410828,28.18983165759072,forward
59139,0.2544538863552734,0.6216536427289248,1.0989987677663564,-0.2241031223818934,13.083142831568445,17.963704875646187,forward
59240,-0.3526372337423265,0.1959155169405043,2.378824058282375,9.81942402158977,3.169041075581486,13.654416438653728,forward
59356,0.033647637253627176,-0.5119447292536496,1.4440660046458242,-2.262154384239992,-13.872907360013265,-5.872688002157112,forward
59456,-0.18820421191081405,-0.65454235137403,-1.9423060336738824,-39.732183703920896,-32.241043958115185,-21.779808404560473,forward
59556,-0.4948142923630774,0.4932512808300554,-2.936514055144787,-14.485707663478578,-8.431224785051468,-24.709744407537087,forward
59656,-0.5854707879092544,1.0629637239195406,-0.8324287290185689,17.027352534781844,2.276546233151443,-24.87404290047445,forward
59756,-0.4627948408331722,0.4355262370921671,0.7175473813414573,-5.353842927140849,13.159347252138279,-30.203103339985553,forward
59856,-0.2626591854469851,0.123696522295475,2.127716377082467,-0.6551784256140685,2.806112784173923,-10.8705175640948,forward
59956,-0.481489531365782,-0.5591648917205632,1.2234937469631433,10.456137671112943,2.017779607247044,-10.056709062224245,forward
60056,-0.28019442201247435,-0.9129840287238359,-0.7627180639326572,6.3992618631060685,-5.9520057083280005,-4.241879165639487,forward
60156,-0.16070430189827456,-0.35689576796963807,-2.991531008967757,-16.904231544803196,-3.357686204702184,-3.6236518499917763,forward
60256,0.464769538439624,0.9345898574627935,-0.4550602279931307,-29.265222744294423,2.275012215352541,33.3163411297178,forward
60357,0.5739877823211252,0.9397010629966854,0.24774726485610007,29.584680937059677,7.166958477229399,11.339363093065632,forward
60473,0.2009408342892304,0.2609101132899523,2.6157676050513983,5.231484783915125,-10.192587138025186,-0.6124863282069037,forward
60573,0.05585524041117169,-0.5067440918706357,0.6937871510475874,11.269387805018852,-10.988981218833148,-2.5528794652708804,forward
60673,0.1284050470463,-0.6738188603825866,-0.7673352023392915,1.9885254801450567,-10.697090523331715,-11.144448277173685,forward
60773,-0.03420574606042355,-0.011018237620592116,-1.926952397197485,11.825699028953574,-18.301804362203693,-3.935290329931009,forward
60890,-0.6428996982447802,0.6482156325705349,-0.636062107309699,-13.671591803095371,0.8602537348657906,-11.23000920313279,forward
61008,-0.3722438880207017,0.311093217215687,1.7543097654253244,0.6461551053902469,1.9459783108143431,-7.314048308552917,forward
61123,-0.5081317468367517,-0.015292261677980422,1.9296417824119327,11.298164245765761,-4.66074606601922,-4.249992149712993,forward
61223,-0.05074806259842589,-0.47191564733460545,0.8174778281241655,3.493392245113405,10.31570471290925,-6.0167080903355314,
61323,0.9819108499556779,-1.3816592328324913,-3.0214228738844393,9.076979043714799,18.48327224316718,6.505377389598679,
61423,0.6904347718797623,-0.5636392606556415,-1.0197183103024958,42.82408739778061,18.29184253129923,11.770482925929546,
61539,0.7421221428886056,0.6050730948060751,-0.40740298928320406,-4.41852877503035,5.5113398323253495,32.88229626834183,left
61640,1.735401066815853,1.2039745152398944,0.6471621779948472,26.672778341039187,5.17742469040812,61.123888807010196,left
61756,1.1310777674637735,0.9142039259076118,1.8993898520112036,0.23752903313431706,25.656137126481347,58.78010939332032,left
61873,1.244240766915679,-0.3923994814187288,0.786297676962614,-2.454878203512245,11.620071915122109,57.00920185098151,left
61988,1.239313247385621,-1.1210580393612384,-1.41982880448997,-12.050146729043009,6.515738359682765,57.720091354891025,left
62088,1.1188389750722796,-0.21136457661539315,-2.1911574603796002,4.658015271011684,14.97423694386374,48.087513134462476,left
62190,0.9916974999547004,0.852313286922872,-0.3337012087345123,16.7825790454961,14.738784955247768,60.869081769833706,left
62290,0.8331910186279564,0.7589648488789796,1.3117957152724264,9.385765065901905,25.43154001600382,52.513629395887065,left
62390,0.6979184056334197,0.7924383716747164,1.3370681036949157,5.840348337097571,28.149661607534583,57.224168394729325,left
62490,0.5981085164904594,0.20447510936260221,0.9222440245002508,-0.5150763580591504,31.621904385326452,48.044578565339776,left
62590,0.5710393443116918,-1.0217442631721496,-1.625223951306939,0.6651624012724817,32.58684277541459,48.4184118940875,left
62690,1.7164540820226073,-0.5919704521268606,-2.6587539293408393,-20.76386216175068,24.14672849915835,42.47981854285529,left
62806,1.7476519149713217,0.8370935059592127,-0.16506138286292552,-10.53031181795199,15.58512906322968,63.559561585793425,left
62906,1.324584031305462,1.4392767245426774,2.342536939370632,-2.1337831132237177,15.805313871503381,75.6546449831596,left
63006,0.9191415284402668,0.32388387133628127,1.2842939603626726,-10.41905998920353,5.620697137352777,75.81393865498264,left
63106,-0.1330708286339417,-0.5790051720917224,0.64956280939579,-52.43572084311931,-8.985371692792942,43.90760128695475,
63206,-0.7255921561092138,-0.39940848339796065,-1.8702479286789893,10.656774477982069,10.876450437162603,14.90745476925394,
63306,-0.49840362209193406,0.38704759899675845,-1.3804407969534396,2.4026633282982015,58.78698739381453,-1.761847296404789,
63406,-0.04819507191367447,1.1548569947190581,-0.6128735394239425,4.622252400517497,17.36928375746373,-0.6879978047410971,forward
63506,-0.36314931193906813,0.26586232886984945,1.5740011290699243,0.07062999903132337,12.087146717550615,-4.372848896748128,forward
63622,-0.7509825448881834,-0.21809300808757542,2.128342984548211,-11.239002000948759,-1.3690676632296854,-19.317373237061844,forward
63722,-0.6012228125860914,-1.1743985844045877,-0.32781682687103747,-8.892207912513967,8.10963386571788,-7.35593444363802,forward
63822,-0.09560425414666533,-1.1870958611533045,-2.3832833757787943,1.715009060728015,-4.065296577479855,-0.87642852995488,forward
63923,1.0639547807835041,0.049538522411882877,-3.2063170844644304,-9.015608086474941,-10.880176305354846,1.6119396918835245,forward
64023,1.1713638928838073,0.2046855372428894,0.997731519421935,7.8702673249338435,-19.52452604439916,20.447180440883038,forward
64123,0.8179156350195408,0.3567110590524971,1.054830540215969,13.087781383788531,2.8870840364541897,1.1109767991662947,forward
64223,0.24721524033863096,-0.09336582757011055,2.9335043519347903,11.58465140786007,-1.0309857857536309,-1.1823855731651318,forward
64323,0.9020243163574486,-0.6153190328799187,0.16270868225693702,14.98556139750762,0.5835915330882822,-3.198898607207962,forward
64439,0.4419409264400601,-0.41854719137102364,-1.7167314376592635,-3.169634661709042,3.710723955304745,-13.798886038656898,forward
64540,-0.7016184291951358,0.8094120105683803,-2.423491467526555,-26.36171274321659,-17.726492405771644,-15.263290549538679,forward
64640,-0.717855716638267,0.7416349438935518,-0.12723755590319633,6.29682439348151,-4.3574045583742596,-8.743826321663672,forward
64740,-0.025474961789883673,0.32566520179510117,1.6776041268855333,6.4562508271065395,7.229457269455955,-13.976068829689845,forward
64856,-0.37378976575583217,0.04408303348496556,1.9404934312939643,11.782381115463707,6.733020764446034,-3.917351264962794,forward
64956,-0.3836731541275978,-0.9686788818083703,0.5878109943598508,8.66450818860596,9.075258689817602,0.312138044243996,forward
65073,-0.04525262525361031,-0.8564230603292584,-1.7058622531205414,-7.173878312632269,11.857202422726612,-7.138260583657945,forward
65173,0.5356692306470126,0.09729235336408018,-2.6084306862920523,-20.93386044755042,-5.590606738964286,-3.176907745958048,forward
65289,0.5870987909698858,0.5601363671012223,-0.49986324631571766,-0.1860712683815137,-6.491154801312597,15.23706262312583,forward
65390,0.2805843894444406,0.5633217191390693,1.773783112180233,9.10303792294569,8.864794094506475,8.146843882542463,forward
65506,0.19257698363494127,0.11804098075181245,1.570131594160199,-1.0964803629831772,-3.355124243433194,8.722022650285698,forward
65606,0.010836994735593906,-1.4451733813658356,-0.1132744970023632,-2.824884491890645,-9.303602159054883,-1.872717915220198,forward
65723,0.13853044574670492,-0.3280111803993582,-1.6122534105747937,-6.998264757561132,-11.153677570289666,-2.722259832394146,forward
65823,-0.3764658530972898,0.8218779627792536,-2.1059546271294356,-5.32140251679105,17.260188560945704,-15.840448364593927,forward
65923,-1.1812158632040024,0.4365224085226655,0.4958610249370336,-2.9876244210367773,3.101407475202962,-11.378932086474808,forward
66023,-0.5131962636847048,0.2605618843741715,2.3169196830332277,7.425559684489837,5.8059314407567,-11.882678174557114,forward
66139,-0.8845096293896436,-0.12652195497974753,1.0283581283539533,3.1441708627095886,-0.5589926067924812,-15.878161254096153,forward
66239,-0.4358635062225163,-0.9015575025632977,-0.44164018992781634,6.1160732554940545,-5.375478405110511,-1.3887531221913085,forward
66340,-0.03859777047429234,-0.3358260919339955,-2.4046336223214864,-0.972285752644366,-15.989529196060502,-3.665561463852151,forward
66440,1.1580468768015504,1.2778196497820318,-1.544873818784952,10.564928924212907,9.429580729427537,9.998690020319572,forward
66556,0.6244044027417898,0.9761094702005386,0.15574059680998326,12.64404960662219,2.747609225725002,17.749878973489768,forward
66656,0.5029820359233766,0.5348310993224382,2.3066671690881253,5.276507683376556,6.454380209047602,20.965240044144753,forward
66756,0.7367218912802637,0.14163549908995626,1.0648860702842473,-18.078858449958016,-6.176903347129011,12.30706856354127,forward
66856,0.46918947377372533,-0.910951061591506,0.6039964054852723,-19.79074291258416,-10.823783702246281,11.032749924808236,forward
66972,-0.08463891575708984,-0.7866609573170542,-0.7187070727705955,-1.038172211977542,1.4841064049860946,11.917150139298167,forward
67072,-0.9695709352772682,0.5990082418091595,-1.5139637167364357,0.4131833825774886,-7.775438686044679,-4.409869802710066,forward
67173,-0.49365430867299437,1.003901878619939,-0.7149883445084094,29.63752952576265,1.835553148398866,2.746895257513324,forward
67290,-0.5078619169194251,1.7619135184273123,1.6393436620742081,52.886561139664344,12.311579049714418,-4.621300442901926,
67406,-0.415607009733282,1.0857836046233773,0.9380857367545365,44.48183919613982,27.19068938768645,-0.9158652951705931,
67506,-0.6316445831283927,0.46437370752245183,0.06397358273863792,21.721574211696943,21.50333942243128,-9.56143838512828,right
67606,-0.4874208211109042,0.6514978691115975,-1.7418208707302807,-1.561770778491017,28.230271500119073,-27.60817104032514,right
67706,-0.6670235742192715,2.0768401763260362,-2.9744173770815134,-0.6163863128621281,-6.183482526847025,-49.28223616370277,right
67822,-1.142079200080037,2.1486840540483594,-1.7614847716212272,-12.374053082505231,-35.25460538219485,-88.47719133845631,right
67922,-0.9561920329399406,2.4936308794185518,-0.5982207446932792,18.784608236517094,-53.287110753350575,-98.53757504245402,right
68023,-0.5886358278114349,2.7648914140701293,-0.17481880676746367,5.088000438699728,-55.26775632962755,-128.46547640040143,right
68123,-0.3881303527321666,2.1823101370573044,-1.2053414196789265,-13.607040539023226,-62.85478851628566,-144.0079270266023,right
68223,-0.4174898643378168,1.51348002487272,-0.02772211966216564,-6.215096911194076,-60.736364364071186,-135.23637952841847,right
68323,-0.7024307684913277,1.657582206337154,-0.2587976511806249,-6.161987494642172,-59.97157442232652,-135.42731063647702,right
68438,-0.3421633686641231,0.3515308799356222,0.17615151667594908,9.273498954061699,-41.89607984053473,-123.58138570984373,right
68540,-0.44492615279592573,0.39712358733117575,-0.3050672349244356,13.075933566899497,-21.664513103823364,-116.5102547866696,right
68655,-1.0665073878757656,0.1534983708411455,0.01932078654170036,5.584814738548116,-23.92337960575164,-112.55664759693191,right
68756,-0.47665173594579097,0.6582081804051995,-1.2215215701073407,-11.492752066351194,-24.60457315469723,-117.19211257151198,right
68856,1.0649263292293996,0.3049570525482297,0.5361357521802187,-14.79513913854225,-48.26403595846687,-93.50371879396546,right
68956,0.886600610319525,0.02088642842322588,-0.6747545337975025,-2.356775769576529,-44.558815428085865,-82.44558105601229,
69056,0.8892671261150389,-0.5172019191294909,0.7918471277832985,9.221466572964541,-18.166044107165934,-74.35085066306337,
69156,0.22086506661679595,-0.5046174551054835,1.225361294400692,14.532197346064269,4.526006070488732,-65.4819661390177,
69256,0.6515167930077761,-0.8718336876899003,0.5219178417354822,20.070024225104106,-4.378252857042077,-45.830285877935005,
69356,0.8429269613530487,-1.0609414243116975,-0.6844540900349617,26.27628585971995,4.637202403950186,-21.588201107774104,
69458,0.13108444058969615,-1.5388284011408686,-2.4458330631941556,-7.377675789539817,-24.29312506628111,-23.301091315755535,left
69559,-0.13688837762810288,-0.04996171626001596,-0.8835790705412626,21.431484124815455,-11.573530152343997,-13.220522695213143,left
69672,0.16288257751911878,0.47489714736342425,0.6052800155550241,25.954449053576237,8.047303266899636,-3.140962808233798,left
69772,0.2315487019881606,0.3300385945737362,2.079944572082162,10.70366970304973,7.458062847202636,11.59055269130296,left
69872,0.7152392505295574,-0.2782251129671931,0.9040607175558805,-1.7292295145799816,25.106322266220953,26.851182882159918,left
69972,1.6937588506117462,-0.40705929041206834,-1.5448685580879449,13.448309504033068,22.775258957218348,75.64006252928162,left
70073,2.2080819994345307,0.5592582690924406,-3.1228742466241117,-3.469539516984428,43.15565893103888,102.00177185740363,left
70190,1.3262854283958672,1.0466843509003518,-0.45614977679550645,-22.68660139424429,36.288740418764384,92.83364991563053,left
70306,1.5952917543798684,1.1893263966843486,1.913497872340679,-22.289880101587855,34.28212646326302,85.84071782826388,left
70406,1.4579733878366647,0.6901511326327919,1.2509668603003024,-11.106700382951965,25.81432943030072,100.57435111333017,left
70506,1.232695144420117,-0.8818608684465289,-0.15731003808379174,-5.0041389491834884,25.890557756532647,89.78055535663482,left
70606,1.3267461777754128,-1.425870130480826,-0.8387357202082872,-5.893610152245331,8.7370780947637,65.62174596038201,left
70706,1.277880440058559,-0.28184797963947056,-1.4333675004988908,-2.5071822980723217,16.69186218048728,53.39692653482604,left
70806,1.3766229922309516,1.1576172532126308,-0.741602795189619,-0.8901385872489467,32.22299176813884,52.59412659035025,left
70906,-0.07909750211238861,0.18252631240487097,0.7925549837917089,13.58239465517688,-6.353438123964453,46.95173122266481,left
71007,-1.3350696233540773,0.5329164978727698,0.8939613483458757,-8.425820397870694,-1.935568462189009,50.622268052440496,
71123,-0.9900255481544882,-0.2129264191046357,0.7115425879687071,3.6124879057933903,19.41209600801887,17.796175703231405,
71239,-0.4194092150278389,-1.8334942151688038,-1.0446101749747991,-30.303718856649013,-19.29550126379217,14.36641499452972,
71339,-0.28096962590236213,0.08359934357628226,-1.986183169323206,-2.1025433220639607,15.589841893756988,-5.698619777385691,
71439,1.1290953614749013,1.2251539352603256,-0.7472106981992721,13.498176715163332,0.5106697654665815,-1.3032383000091026,
71556,0.5437179509375244,0.6976086090318858,0.8141904770165681,-5.259864646803351,1.8484231457858742,0.9368434741543468,
71656,0.6166793614476919,0.4002177539542317,1.4055886822134256,-6.8726733735370535,-7.172763284250264,1.8641750561158046,
71756,0.18886804611440747,-0.5034785142034292,1.197768354076147,2.214211152021557,-6.302814896270434,-7.647821724044869,
71856,0.11143661405071616,-0.8962347001053392,-0.36037235803902146,-14.052954561629386,-24.501877845431505,-8.57914448435914,
71956,0.39896439289227126,-0.4975552616342902,-1.4263561604321002,15.852800761707895,-17.412103920917833,-6.3137863145115904,
72073,0.21199797914810478,0.7187943126626313,-0.27327158221304415,29.696784831907095,5.222339587503301,-7.167374264995124,
72173,0.10339403124004602,0.8320914598882198,0.1222673662751913,4.8179586645795185,5.5124561413678235,-7.935772254168851,
72273,-0.07448920459933578,0.29960823886618015,1.6744927168667316,-11.099522707907928,11.02987014629943,-0.66514612621235,
72390,0.024494060993753373,-0.611458996450901,0.9263999751359224,0.5040905857485667,-8.784876612349095,7.295512028919148,
72506,-0.14272541321851312,-1.083822972074896,-0.09451835860610008,16.226529930070775,11.185565162203517,1.8956643626236789,
72606,-0.19098836273662745,-0.7645135690473019,-1.1726397580385208,2.166651691057112,4.3880443601041135,4.066067108195597,
72706,0.4049322883207351,0.6317429289363324,-2.031282540243864,-12.796698358156451,-7.62851790190312,8.104592332336765,
72806,0.6754403971698135,0.560828733279556,-0.2795873412311077,-10.610683507689176,-6.794960334934294,5.627366390190471,
72906,0.3259809897460043,0.4816280630536377,1.0977958217173813,4.899353175144914,12.199189994469151,5.366746008256649,
73006,-0.008174812621902674,-0.17785642089769244,2.1060943278610704,2.7512127908424184,0.07596627108338096,5.272640515645859,
73106,0.17861100212465972,-0.6524570695325732,1.064200426107645,1.3762126814317535,-10.781527883172352,-1.9712743432923086,
73206,0.28744061201475557,-1.1852115087114274,-0.30747663415372367,6.9595742972339485,-13.792138665530572,-1.922479685305149,
73306,-0.18870193229988216,-0.05576178084090352,-1.6865093178749084,15.472010885290514,-27.88971485300765,2.1877894189910085,
73406,0.22645693180710075,1.1601401958189903,-1.9224901570916175,4.382965687569386,-7.746389891504615,-10.657265397828663,
73506,-0.45043698863927273,0.5294837469451129,0.9364321243286132,23.047899618317746,17.75116475660102,-5.486427571101374,
73606,-0.08518865859434008,0.1465956057153642,1.7958482289940119,0.70856617237465,5.4061766903351325,-2.00351304961818,
73706,0.2844647014765069,-0.6307549408122897,0.6088380002975463,-26.51175321626155,-6.651731268039128,-4.169043308990941,stairs_up
73806,0.14023902149656786,-1.1265224422469735,-1.074620113313198,0.57218842554724,2.017642149689998,-2.318309638274898,stairs_up
73906,0.24035600382732225,-0.690350454597175,-1.584777959150076,5.490561543096525,15.745534348340136,6.657412277881285,stairs_up
74006,0.47320382398162036,1.2022704878009856,-2.9243787961930034,-10.180992038135443,7.07405893989394,12.207562098844294,stairs_up
74106,1.0556998703964053,1.7946733399957417,-1.5368652843743562,-0.5881054343560144,6.660239549310847,14.19355827456233,stairs_up
74206,0.23555658592265097,1.4383461656942962,1.2953759108692406,6.247429746064447,4.0065112737276705,20.010746720844857,stairs_up
74306,-0.08314058522442355,0.14540288879945873,2.7845465471327304,-3.2486503454525693,-7.563505600062,10.600026705036663,stairs_up
74406,-0.03316606199847301,0.5874402613513171,-0.47782151037752624,2.556882809898154,4.1195526120386745,11.532175918240508,stairs_up
74506,0.029880845765746195,1.1830694551814347,-2.485906130385399,-1.7034821560082665,-22.28716851648736,4.452480791620837,stairs_up
74606,-0.466677417887561,0.5996659750655293,-0.6373813732147217,-9.394797137305602,-44.32455359993277,-18.008787539262855,stairs_up
74706,-0.8433286009564995,0.5023237181451171,0.4989513921678066,26.065186910589656,8.83174366288643,-36.2345736035516,stairs_up
74806,0.7560157898150384,0.32758776735551653,0.353021410754323,5.685243705669867,6.418026527190209,-29.30039821851999,stairs_up
74906,0.13633783107325434,-0.46732305884733794,2.174347195354104,-5.698530558039658,-1.776194535643224,-8.73048866976193,stairs_up
75006,0.723020332859829,-0.52500156002976,-0.027702245917916295,-35.77513068374694,-24.493975316561798,-3.4884145313123467,stairs_up
75106,1.138927165789902,0.14827486403919757,-1.3468015622019767,-1.7219247339843589,26.107682640058183,24.54590182972682,stairs_up
75206,0.635477073963359,0.2240005516309291,0.035304537615180015,9.874170549108362,25.44941462106174,45.195706662527456,stairs_up
75306,0.7030805376369506,-0.15638722415044903,-1.1766641912490128,4.168784615576127,-4.118029906740585,36.382928727418864,stairs_up
75425,-0.27731371547700834,-0.37481443262845276,2.391612812706828,4.423277464050801,12.89406099722769,27.112215636764883,stairs_up
75540,-0.7949011085264385,-0.13244345398321747,0.7607680989086627,12.519980927896201,3.692497595504566,20.54041764569559,stairs_up
75656,-0.7053189642135054,-0.03512311663366854,-1.480568812134862,0.4697620549800826,-25.036350393268755,-5.235440317218208,stairs_up
75756,0.1964993447104469,1.3540205536700785,-2.4162521639227865,-4.4592661576744215,5.922042522212801,-31.592418458679507,stairs_up
75856,-1.1391367168873547,0.5898591590613126,0.013167524608969687,-40.614616823929865,-10.39122184569385,-35.46661786912663,stairs_up
75956,-0.21916878409292548,-0.19056962586790321,1.4934417377114295,9.829592465716626,-13.38796136762142,-41.03278491058014,stairs_up
76056,-0.08631220099786296,-0.9149015527829527,1.7260393642306326,-2.328602306467284,-9.506826753845797,-25.039840619934633,stairs_up
76156,0.541213493835926,-1.1376283581510185,-0.9960019191503524,1.1790927816549508,-0.6523419227569562,1.3575145049703148,stairs_up
76256,0.4465691342299804,-0.16753160890135912,-1.7326707650691269,-2.8091404789669427,36.424213805857,17.456518933543133,stairs_up
76356,0.5636585498780011,-0.007751052518188953,-0.4378355369478464,9.47846183199638,4.893516778499139,39.90299648977916,stairs_up
76456,0.49765572633408006,0.05095934899523854,-0.37956571880877016,1.9448261432787266,17.153072411739686,31.21577792218291,stairs_up
76556,-0.3688646573785692,-0.3847984318304807,2.7194214562714096,1.745506815867474,7.4624478286497835,23.22752505575262,stairs_up
76656,-0.5366173982173205,0.5145031815648079,3.392343513944745,-9.15119758678345,12.480068717481231,27.27993946957101,stairs_up
76756,-0.2745108964833431,1.1356943944137543,-4.073055494841933,16.43779451128844,-26.574568758510864,-33.31305239363244,stairs_up
76856,-0.7357248430669308,1.3721341563791036,-2.6247651504993437,-6.9412437770489275,-26.898458036500163,-42.85117934312347,stairs_up
76956,-0.5089093436131253,0.5827719772793353,-0.2374772152543068,18.663293831573913,-7.9214519088002735,-32.87581783391408,stairs_up
77056,0.03417111313845962,-0.1947219232417643,1.5698866794884203,5.109658114784192,-3.9320109853557565,-25.68081118485802,stairs_up
77156,0.1266547510465607,-0.34660540623217817,2.4119278709828853,14.892749371970902,-5.1931196113471625,-0.17605775749102542,stairs_up
77256,0.7863355978202075,-0.7119792258203029,1.21370885052979,-13.224786440802523,-13.667299882975664,-0.8320653840785893,stairs_up
77356,1.1133566712036729,-0.6329508434213698,-2.2159207302361725,-17.18012337594752,-6.653341912022781,4.597914728957449,stairs_up
77456,1.675129553465545,-0.07317191145569085,-1.620453083643317,-14.370374796701034,18.66310087872986,32.45745850196704,stairs_up
77556,0.32196196336299177,-0.2238620199430734,-0.7167834112316369,0.36058505627457244,6.621840652683859,39.398740698830046,stairs_up
77656,0.04975161717329174,-0.29507742703612894,0.8287737136423587,15.703327194364043,20.612566641445728,31.659770954085005,stairs_up
77756,0.06558732437847647,-0.008230798859149216,2.6620751827180382,10.16460214544835,10.619291253590685,17.48550113373879,stairs_up
77856,0.45147944689691066,0.4563592548277229,0.07287877372801303,14.696876622047862,-4.816398393240994,12.411450075758344,stairs_up
77956,0.0030126623520627615,1.0438848563749343,-2.068698370924592,-8.558319237579772,-13.674840411819357,-4.696690790300058,stairs_up
78056,-0.25652926785722374,0.9822676275040954,-2.641726806694269,-29.650421507821047,-18.54448952115071,-41.66109059723503,stairs_up
78173,-0.5746734264977276,0.21829327990002928,0.49784138509929177,-10.085640036001125,9.57988074966096,-36.47576465861768,stairs_up
78273,-0.0024534575667232274,-0.07429974644184112,1.6671891158550978,5.76395822075968,-16.321218550081955,-29.060293163531945,stairs_up
78373,-0.4321274614993483,-0.5265357107944786,2.3454846832603216,12.008418542082463,-48.94306604499286,-43.62080164370592,stairs_up
78473,-0.241533212646842,-1.324143886322528,0.675827715986967,-21.22071131721803,-11.006224031392845,-12.651117998639506,stairs_up
78573,-0.17003697931841014,-0.253952256976068,-0.6569874064385891,7.29627017991702,29.719833305261304,3.8080101816346446,stairs_up
78673,0.08982983546368777,0.29135924676321445,-3.2875182808578014,2.9190371554953902,-7.7323128716252185,3.704911464321064,stairs_up
78775,0.2105433964256197,0.5228343720585108,-0.14246201304197312,9.653540924764963,-0.290336240495874,0.021267261404289195,stairs_up
78889,0.3340226957738399,0.13208864919617772,1.8663906687289475,25.365676501837385,-23.783898605163518,-2.0225543363637066,stairs_up
78989,-0.126926224931702,-0.06206599555164575,2.8059043924599885,0.8583656678079581,1.7471810659877733,4.948935652764153,stairs_up
79090,-0.4309294108211994,-0.7829578650154173,1.0602625021368264,-11.595247592583698,29.67254449054272,2.111969836892224,stairs_up
79206,-0.32314730069004,-0.945032194891572,-1.0044862543791533,-10.473385606314519,2.542103134307893,2.0222768599286747,stairs_up
79306,-0.9297167715337127,-0.2887780711635947,-2.3148089744895697,1.872424003642476,-8.727016372342625,2.7102956888458105,stairs_up
79406,-1.2899468715578317,0.2862611199066043,-0.8242951069235801,43.92489532593323,-1.9269905983651192,-10.000399275159367,stairs_up
79506,0.309015168832615,0.8056411137275398,0.7804781770288943,10.910537349989198,13.786314221715843,-30.437307111530707,
79622,-0.44071880076657977,0.8773293624967337,3.1060680732518433,28.758627613554577,38.233418218872075,-40.25831659078157,
79723,-0.6524120613470673,0.9898054025977849,2.5759727702796456,5.482913865660226,-4.9184610562348485,-28.396419266774217,
79830,-0.9413504376389086,-0.8499836749315262,1.8939158045142888,-29.268368046407215,2.2840842006741986,-19.376567071503757,right
79939,-0.6965669910244643,-1.750503943401575,-0.32333120588958264,-7.957074760416475,27.633420542139387,-22.74536834186308,right
80039,-0.6775200529880822,-0.7076081711292267,-0.9751602066516876,-5.132687805118183,34.53551623618674,-16.347552344426937,right
80139,-1.3185541034914552,0.6025166883215308,-2.50940332582891,-12.463742004043961,22.87632697391432,-20.084593018603744,right
80256,-1.405970082746446,1.7224293570399283,0.6599854192107916,13.037354950919973,-6.485502819774411,-32.230887466819375,right
80356,-1.1046059401236474,0.824213273859024,0.6639958238959313,23.249299698826622,-8.277728236286478,-26.070502505311218,right
80464,-1.5965588517062366,-0.0038838556960225103,-0.3364420318752527,24.383662638824216,-37.1305065924551,-46.63716344534529,right
82036,1.1076325944684444,-1.7039024973548949,-0.14097791196405887,-9.911447160277351,-31.154005691329314,-35.484273908131115,stairs_up
82139,0.03247705910429358,-0.13743264057263732,-2.9179572387129067,-9.611704308551342,-27.1959622937257,-30.820047006956127,stairs_up
82239,-0.14632157454695552,0.9909811683788895,-1.1249340040117501,-0.704069773466666,-18.003031397339825,-32.532262733757015,stairs_up
82339,-0.6232162158705293,0.35077655443698164,0.4484592222929001,15.184654581624322,-1.5974497657244597,-19.948443442783294,stairs_up
82439,-0.3224136891858652,-0.31720015578866,1.8145692960768938,-4.750757287109409,-16.189187578331023,-12.865244429119405,stairs_up
82539,0.2560742175661027,0.07119315872862934,-0.9017746524453163,14.50876638211654,-13.468597727188945,10.2472713400676,stairs_up
82639,0.5876319845311343,0.38585400529801844,-0.08801438353955746,9.174515852609874,20.889633265127294,9.13505358090648,stairs_up
82740,0.9148680158395319,0.7633822269298136,0.625377631688118,0.6032891583243642,12.26152400838198,40.194191359758904,stairs_up
82856,0.7821269671492278,0.07195391396805643,0.3053875529199839,-19.711362454050274,-12.935527929452483,36.594278686001154,stairs_up
82956,0.12816263485886156,-0.550169245968759,0.24245734175443648,-12.27382347152988,-11.630849953632389,38.79122952310326,stairs_up
83057,-0.6809064074907452,0.2339109741400927,-0.7594353890001774,-13.960315852142857,-4.740282338243548,21.03919733247765,stairs_up
83173,-1.0670595418658106,1.0732136075161396,0.664440060532093,16.678270104038955,-21.257888036870412,-0.668944244999406,stairs_up
83273,-0.9003389205537736,0.40224736008569595,0.4021504755824804,-6.490286940401182,10.675243309497782,-44.32892492100157,stairs_up
83373,-0.305900178617239,-0.025536007794737813,0.10719546934962272,-20.245770115090412,2.410606624859515,-44.09352928144626,stairs_up
83473,0.24139387724138794,-0.7479461728669703,-0.26854104655981065,-30.673525788881012,-2.2041504968175394,-22.910925297155018,stairs_up
83573,-0.07557921005943789,-1.5875244813792406,0.47478082750737666,-19.991010889238105,-8.144214259712008,0.523591309437482,stairs_up
83673,0.2480294975972734,-0.7721097232647239,0.04231821576952934,15.996243272014626,12.695931723557607,4.517608352904201,stairs_up
83773,0.3007360373197123,0.025392069279402494,-0.5793856958419085,0.3308602864500885,2.364958549645616,8.493812369737233,stairs_up
83873,-0.4401730765173211,0.20406974343210457,0.04991816937923431,-5.234501166207331,9.83304256502113,12.57882983778503,stairs_up
83973,-0.23087927829399704,-0.4237446138836443,0.4957902977883816,-3.0198407158044347,11.509912062867205,18.03759727718197,stairs_up
84073,-0.23769999115951357,0.013768851502984762,-0.1405062027990818,5.337313869349417,4.969870609457065,21.893341516491716,stairs_up
84173,-0.15151304224282502,0.880524213015288,-1.3054349480688572,11.747742664861633,-17.723963528231444,4.924342275997052,stairs_up
84273,-1.2666717944324015,0.37043037232533094,0.24720015236735343,-2.819508706127022,-18.76618892387286,-32.405798366179646,stairs_up
84373,-0.8695672040626407,0.6340950450204312,-1.2194400876581668,-5.306666383656747,-5.522043165641582,-50.83255250151226,stairs_up
84473,-0.13439499904294497,0.04013356520682573,1.4958587357252835,27.363107267999666,1.281385109759647,-11.46287852646885,stairs_up
84573,0.041731173129193486,-0.33131825912073254,1.62136143065989,-3.0444244876180147,-19.986967417249456,-2.0081974921717514,stairs_up
84689,0.24851916254404932,-0.6231698925107717,-0.5817845736771822,-7.138234116674911,7.695809779379732,2.2428127826143966,stairs_up
84790,0.035156242585135625,0.26464813077449795,-1.7738123382747173,-5.496366777004212,32.063018492493384,-2.503358672797584,stairs_up
84906,0.8693700009901076,-0.03668853931948542,-0.28217618868052957,-1.6856903669940295,-1.9814882508658278,8.251995498588455,stairs_up
85006,0.05398191168680787,0.20992884472385048,1.2315057885050773,-1.8052467452778733,29.47831098602048,20.344398046705393,stairs_up
85106,-0.5936517562773078,-0.41633360697478056,2.3184604827344417,9.01620999689555,19.84782963366713,26.060392117792308,stairs_up
85206,-0.5090396554619073,-0.026031536226719616,0.4695511101603508,-9.770807588851266,-0.9610231975898381,20.392851408677465,stairs_up
85306,-0.7074974772963672,1.1083631737653166,-2.7866175081878897,-6.195844315471103,-18.26093251021034,12.227299637998337,stairs_up
85406,-0.737585668502748,0.7058120814926921,-1.9492086526691912,0.39974047639341925,-5.386794321017929,-30.904666220583415,stairs_up
85506,-0.0536702519217506,0.6921737975668162,1.1438795275002718,-13.76067027647703,-9.407147826872277,-19.412206998592886,stairs_up
85606,-0.7913272686276585,-0.43217188516296445,1.469805426058173,3.613141469519596,-8.202595301642692,-7.450784426868341,stairs_up
85706,-0.3487805948467925,-0.6104775841981173,1.643579107686877,7.455472497959908,-17.84236656504091,-23.695352032763473,stairs_up
85806,0.16446995630841701,-0.11531411307118833,0.26323358780145645,0.874825356490631,-5.902958119898139,-25.062188998898915,stairs_up
85906,-0.1680813334723003,-0.30945925933830437,0.25385727216899395,5.870394339256458,10.863617365485796,-4.656880178948993,stairs_up
86006,-0.13567655415292829,-0.8490936672892421,-1.4595137491464614,-1.6940877644134429,14.061995170769544,2.2962718194744403,stairs_up
86106,0.53970243168585,-0.6439106288529932,-4.752391511210799,-15.694622118266862,-1.5098696650919712,15.522205945500938,stairs_up
86206,1.0719008444171398,-0.23661891792453824,0.40509295877516266,23.38855871826672,3.611200842021666,21.703218078302534,stairs_up
86306,0.5689812792707234,0.2253184292964637,1.350327982762456,4.263070681313098,10.334811313338715,37.51061344995548,stairs_up
86406,0.7144618364162743,0.6924305488068611,1.2921627940416336,-7.854942941757274,-19.229251843937632,22.733543576862495,stairs_up
86506,0.09385470706559718,0.2117045491594821,1.9259481885910033,-4.03242373077823,-15.54717370201192,12.431559860222155,stairs_up
87449,1.5178914115741848,1.0166329115077852,-1.9749673633038995,52.13556476494852,44.02517616332735,15.23374656628379,
87556,0.8608258983980864,1.127653492103517,0.6436877798825502,6.439490396656974,26.099950865917727,29.3790444317181,
87673,1.9366928699672221,-0.011342062747478484,5.421121377891302,-1.9308731340214484,84.53692350816766,48.71932953835075,
87773,0.15661964466683564,0.5951666178196668,1.6529747125416994,-20.22164247184734,27.608073710129467,33.5740851482374,
87876,0.041991394967958326,-0.2802887674987316,1.4079478125602005,0.48956042550642237,8.18235147471642,41.189332846356834,
87989,1.0683421290222554,0.0981207670122385,-0.8339975857704878,8.851116640693524,0.8954061038420545,67.7611934348618,
88089,1.144547489889711,0.4556368588373065,-1.7323714898616074,-28.798693503225874,27.812607139920086,49.54323818245646,
88206,0.2510370636491105,0.7363602183610201,1.2810603852689266,-8.04287218167559,35.86260491644729,69.61780277581134,left
88306,0.7992107153538615,1.064565752288699,0.24371289477348326,-3.303112993233782,17.931432231817876,60.753781346454716,left
88406,0.05451299548936076,1.0497507527336478,-0.14421031801402567,-0.7806588190641346,17.033487752203808,46.778678134758785,left
88506,1.372984051206708,0.5306096822351217,-0.9666261870622634,-32.98478325683787,-30.56801644167724,71.49488902389258,
88606,0.055959897228889166,2.124125951375067,0.3481961825549602,4.772614746227097,13.588338627302084,81.35648690228624,left
88706,0.4064196408016607,0.6418392294064164,0.3724965110749006,-4.326405317939334,36.67941699400536,93.4602036587633,left
88806,1.0209886955644936,0.19593115290105342,0.13145020516216754,-28.33261505464254,10.411027686739594,63.6325216665075,left
88923,1.5907758843906223,0.38313773207664487,-0.009738719204068184,-14.910588118535683,28.17036561845618,107.43858194616627,left
89039,0.6533603750478476,0.4843994274631142,0.5747901847451925,-5.139489819757869,41.99492633820316,127.07663939494937,left
89139,0.08740240738736466,1.0459674348026513,-1.3438736920565366,-5.788250642316476,38.42670232709968,111.79710324046982,left
89240,0.21185995891690254,1.7741551603630183,-0.6909177330911159,6.600909537972355,33.561633713380466,120.57189507850939,left
89356,0.6589966273691504,1.762758737079799,0.10824936231672763,11.693309472271217,14.660951534560887,98.85562280115568,left
90101,-0.9547929067317396,-0.34660262975320216,0.5679045168846846,-19.381985119062872,-21.586700173703996,27.856081293987216,
90206,-0.4653305698558688,-0.15760186063721776,-0.4348462920039892,0.2673528407017662,-1.705951803001755,18.272969011075194,
90306,-0.3507190520960837,0.2908040970984846,0.1521662454545498,2.5867294559106404,9.932064086287035,13.192334504508501,
90406,-0.1869037237714976,-0.2692328282162547,0.5055144039452075,-4.548748892877581,-13.602778500981138,12.78799328205927,
90506,-0.21923633290380237,-0.11235540939606725,-0.035303953093290326,2.0291488840073537,3.6591329751827,-1.4070898322352656,
90606,-0.5226086004786193,-0.385552684263885,-0.31162323243916035,-15.092295056120118,-6.2663515044994975,-0.5792334455109909,
90706,-0.11823226554021239,-0.4286859427433461,0.5004810859531164,-1.9407871536017218,6.192268284553777,-6.275939809433726,
90806,-0.2568577326266095,-0.8441137599848211,0.1136275482237339,-9.205460024644616,14.703916839534852,7.2356334680129395,
90906,-0.4905431178499013,-1.063006832408905,0.5274269605457782,-23.087550573996964,8.112364233838592,-3.9588783882296483,stairs_down
91007,-0.22147561799688265,-1.4290771098285913,-0.1247948389261961,-6.986127084519197,10.069939138646559,-0.3039590527954644,stairs_down
91123,0.09000923801804893,-0.3638063145430758,-0.36830782721340655,21.910939498888254,9.677809440659665,20.166152307482864,stairs_down
91223,0.16180597952986134,0.0446787343557924,-0.59467561943233,4.877377895264044,-16.047065002081396,17.130145174243246,stairs_down
91323,-0.02129742037691176,-0.06736570939496159,0.6996931602209806,19.58557256765344,8.920839211741015,13.435216031394154,stairs_down
91439,0.20787470693932844,-0.027393983686342833,0.12661328652501105,3.991770017951491,-0.5326433911610117,-3.038549030827923,stairs_down
91540,0.9656335958283394,-0.18654899204969405,0.8515478555083275,-10.324840090924143,-13.066659023780266,-1.7299415618009555,stairs_down
91656,0.4639641768734902,-0.5897304181151092,1.5322428852707146,18.566508343487538,-12.692869237488502,1.1373573376184112,stairs_down
91756,0.5857398506416007,-0.2883164450012147,1.0492787513077257,-0.07292396875688241,4.573383677666525,-11.558159665390528,stairs_down
91856,0.383804927281104,-0.22468495369851588,0.6399947705835104,2.6799581229867298,-14.69849196178657,-13.38910713185469,stairs_down
91956,-1.1628916134189813,0.4202058452982455,-3.3060540545016526,-21.48473057203758,-24.107926194483507,-21.592430702417634,stairs_down
92056,-0.35843196456097065,-0.0082914430052042,0.8686030352056026,27.938776101815854,24.159953452938787,10.608485040550079,stairs_down
92156,-0.04872892306204885,0.054344534454122184,0.5530243431389331,-37.3052740578428,-3.0559617443432243,10.015061129986446,stairs_down
92272,-0.3760558475242927,0.16927023272961378,1.4974632483124732,-14.46550396391368,4.312548144773847,28.7975938427695,stairs_down
92373,0.6876452872917056,0.17113529594913124,-0.4558808967262506,40.26214491181136,-10.90956660935341,37.286193924396365,stairs_down
92473,-1.057986081637442,-0.15571180910691618,-4.0977106281489135,-48.71748880236943,8.606240698570227,-30.749156473560564,stairs_down
92573,-0.2679810380568728,-1.180687601546198,0.15705051036477088,-27.74929470140865,29.069472937776442,-44.04662978751036,stairs_down
92673,-0.16869438733672723,-0.7826917614251375,1.2952023078680037,-0.18939180753519771,-9.933331940151719,-21.870460382772173,stairs_down
92773,0.5905964603599161,0.4589676106952131,1.816651947569847,23.277332502727646,-16.077030749517537,-32.86637509738653,stairs_down
92873,0.679531831201911,-0.3617566520042717,-0.2018143657207489,17.606675519803986,-9.52162435868263,-36.85994913905255,stairs_down
92973,0.26660843452941624,0.6091000122345983,-2.348949144500494,19.0575886995277,42.63586787482257,-17.606962387749128,stairs_down
93073,-0.10892784610018133,-0.6824602858692407,0.0663099167317152,-30.528937514341013,2.7492138932931316,24.825072151672753,stairs_down
93173,0.3516107402388006,-0.5884399399131536,2.280937684547901,-12.676837929732836,-3.8639891314116,12.473273533030715,stairs_down
93290,0.5053040491301566,0.5491726361468434,-0.012568389672040938,-1.906125010780965,-3.195216708358502,19.89917045811082,stairs_down
93406,0.4014619453290477,0.8104128581739961,-1.607245227023959,-4.212788109303934,-13.870408364550686,48.95078074366039,stairs_down
93506,0.18489369912333786,0.23190628325417637,-3.805938343605399,-16.62577497762553,0.32128513496609756,-20.961756647668047,stairs_down
93606,-0.2727841092233546,0.047805999530851837,1.081951186853647,27.38167513725835,29.37001833672993,-17.874314774883644,stairs_down
93706,-0.7164891044601798,-0.07229732057824731,2.3065917657643555,14.749697889994156,-7.86944599468615,-4.724470023428146,stairs_down
93806,0.30265279419384894,0.7208692192405461,2.1330910558581353,32.995725219888236,-4.425966424149671,-3.3643454256995344,stairs_down
93906,0.40191429220642894,0.05840820369645953,-0.22885376381576059,8.505221346972093,3.363991536523163,-5.501575650019993,stairs_down
94006,0.031700919066066854,-0.17202976057082414,-1.473684897840023,0.5697202726576325,10.614567324005975,-15.200866035619347,stairs_down
94106,-0.4203103651186451,-0.05187573318779468,-0.2856242833077907,5.1460583273053055,20.391241191580637,18.422975333174307,stairs_down
94206,-0.1761624399287626,-0.03929229207709432,2.2604928624123333,-17.97174913094117,18.245214537382846,21.845468720599097,stairs_down
94306,-0.059548277109675106,0.6070579850129783,1.1017349147319793,-16.745072769216264,-15.451035374349404,31.748532677443905,stairs_down
94406,-0.4716654719658196,0.7039283135727048,-2.5649679766625164,7.537743834060004,-20.600898970796052,21.98709098549202,stairs_down
94506,0.19540398722179234,0.12405951038897037,-3.2423470137447117,5.6240285621204515,-9.724031038320433,5.102023243952587,stairs_down
94606,0.4476412569735199,0.050746436896920204,-0.29376316609978675,-10.76610360847917,15.068312554396911,-9.025246337167477,stairs_down
94706,0.6988287254113703,-0.11822159801572561,2.3073902226656675,9.653029514350859,8.062312607600738,8.164704827222046,stairs_down
94806,0.279565275529772,-0.06298471783176064,2.496961192885041,15.71520830842528,2.4425012604059475,0.3112685558265681,stairs_down
94906,0.21233802475742994,0.14430325699448585,0.9665648122638464,-0.15350097771577897,-9.041980300634007,-20.250262672016987,stairs_down
95006,-0.29612675342597067,-0.5105895152524114,-1.0982008953869342,18.241835301290983,-3.7541998169191686,-25.635554351417515,stairs_down
95106,0.34918512052707373,0.14238324871733785,-2.4413942039638754,-2.717584141020449,8.793706339398629,2.584161304782716,stairs_down
95206,-0.3918115254629403,-0.6559798368312418,0.18597732964158056,24.044926237126603,21.2343392521595,37.382195648275484,stairs_down
95306,0.23684037865549323,-0.2086766527056694,2.3661223976194856,18.04877146666411,4.880121496876274,17.579366715954983,stairs_down
95406,0.19454590908773242,0.16821283263117073,1.1100526612222195,9.408413119416021,20.04093274188173,14.911860241268599,stairs_down
95506,-0.5631682821430266,0.4361358934231102,0.5425701691418886,12.465896928727101,4.3288210704714025,29.160140283913776,stairs_down
95606,-0.4780222936466336,0.1896755996376276,-0.6426636975318193,19.203107587342114,15.097865075388263,31.852798930218736,stairs_down
95706,-0.4811220862928778,-0.4501780089095235,-4.120597582739592,-8.30930590836674,-38.189162008144976,14.484316012435187,stairs_down
95806,0.36637715141177174,-0.42255408892482516,-1.0710603750050067,-34.9381763783265,2.044245096176963,-9.57188601323746,stairs_down
95906,0.6650975745927542,0.28354630798995495,1.1534405520498752,-9.481165733134059,3.0919216231062836,0.7384184212766899,stairs_down
96006,-0.08555701698269695,-0.41465602915138006,2.3875024547785517,-10.211294172388204,-19.981977964060764,6.413108364100976,stairs_down
96106,0.06048252575248479,0.17441081048846244,0.831697492134571,-3.1627237909294585,1.2254808651767388,-6.981410838897303,stairs_down
96206,0.0018906360521912574,-0.22727716214880345,-0.47550329656302925,4.9568561108804285,-19.924744393910643,-11.27687283857554,stairs_down
96306,-0.5634534557599574,0.2805418654769659,-1.8723440241754055,2.4929069892635836,-3.8012120089763664,-36.3559289896298,stairs_down
96407,-0.39153526580482717,-0.1719403287217021,-0.8913339224517345,30.264885816122906,19.683109376548515,11.089776881735965,stairs_down
96523,-0.11196177043598145,-1.0743443651117384,1.60224522677958,-12.57981594634645,22.34176221852327,5.412121089347159,stairs_down
96623,0.037861638219468294,-0.6463879787519574,0.9720879595994949,-10.058884477474894,19.20004937014124,-6.235099120178458,stairs_down
96723,-1.4869889083102346,1.1742995079442857,1.133466854557395,67.81960521264374,34.25821397097881,-29.405678754386567,
96840,1.0087561867833137,-0.08612696235775948,-1.2670575788795948,48.99060416161615,-2.1712569461049926,42.025327510198885,
96940,1.3880455728687344,0.8192296402275562,-3.14186302473247,66.68653830104115,59.45336113980848,31.04664536286047,
97056,1.5914295259937643,0.1380246151164174,-2.3511136290580033,-21.542525925246938,10.839093571270865,22.700927716028392,left
97158,1.3414531869113444,-0.10372954680472611,0.8913362605392933,-17.939210109735228,21.331377457245164,37.256130846764556,left
97273,0.9509894958607852,-0.15583528935611246,1.916060416305065,-5.8313090086178825,-0.15492859397401743,52.96943182486411,left
97373,1.280097093194723,-0.6333320978239179,-0.01643967814743519,-8.496213181230493,1.7898068892156478,47.3969092923879,left
97473,0.8946044685550033,-0.24075462948977946,-1.1937076805084943,-19.45081293532909,2.9227139317029724,49.12665811478822,left
97573,1.5831743233457207,-0.24014234281033275,-1.2407318820118904,6.352706013062792,1.587534465483717,58.4308066889767,left
97673,1.3813022360883653,0.8348895661741494,0.7005395479172468,21.362178195307337,29.44744877625578,74.57137698079558,left
97773,1.0216777007419615,0.845436971412599,0.4348533062666654,7.657699031358353,35.26455013762639,69.49110959689676,left
97873,0.7455639539055526,0.6796835146322846,0.16421499516665936,-2.0357088538183277,27.127639911458065,67.13989210720075,left
97973,0.7587288481660187,0.24540654694885014,0.5176017321020364,-1.899251492598405,31.074051496905145,82.64052148511362,left
98073,0.9725338036708533,-0.7110442830577492,-0.07998597538471222,-0.9522865318677456,37.20009597481377,71.20356096522403,left
98174,1.6330100751385093,-0.3575684065341949,-0.8920055381029843,15.312087128516543,44.02428140854608,74.30459662200404,left
98289,2.2257190706729886,0.8949769551292062,-3.096325262394547,9.69151763032388,40.01207802591885,88.50471017062229,left
98389,2.0871819759897887,1.6838479897111653,-0.24842881737947461,-7.238856463527539,52.40334916154804,104.26520092569747,left
99690,0.6483171932488679,0.6537294275559484,-1.3671581215322017,-0.02351503397145808,23.0006705677544,12.230073548575009,
99790,1.3593342960387467,1.0730642621733248,0.3940641997605562,4.371747955631286,-5.071713425737009,27.26893603481812,stairs_down
99890,0.8931960630618035,0.8990284224770962,1.8816689018815755,7.353045273619105,26.364683875505545,19.96683714221814,stairs_down
100006,0.11709423795361071,0.31423662980794903,1.477120132985711,1.3546503078305523,-4.14310737316511,11.040447548002842,stairs_down
100106,0.1831569384586066,0.10895619541183113,1.577148194923997,-1.3735285238096444,4.201748816057901,-17.518460211578688,stairs_down
100206,0.37939832635261117,-0.4387424226596951,1.0409545750766993,-6.493038225976227,-7.6677641688740135,-24.135986319141214,stairs_down
100306,0.293359845995903,-0.3829195592813194,0.230244341391325,4.583572185474068,-8.479760963067225,-11.105033816794482,stairs_down
100406,-0.48781935544181615,-0.1870028732970357,-3.4023534513056277,-16.866071277910333,-12.774273139564006,-13.681620228344242,stairs_down
100506,-0.3878248669795692,-0.2024672766715288,0.07986848648488522,14.08103346930731,28.770515557804984,7.323684851698158,stairs_down
100606,-0.9141548260688781,-1.0209703561902046,1.8781962573349475,-4.588938579727583,2.173059048828818,3.5865720336482463,stairs_down
100706,-0.6475888789743185,-0.27020664168447256,2.413793080332875,25.78680547549286,9.211552553384267,-5.408746975897173,stairs_down
100806,0.6116630311230197,0.3903865341611206,0.9357985026001929,20.17945239334417,27.14666369584384,20.812517014303268,stairs_down
100906,-0.8894893905635922,0.6512789656639099,-3.8912241789638995,-27.33834612471108,-14.170325386100531,22.210803586472032,stairs_down
101006,0.5596969893032685,-0.30107188167795534,-1.7520546799749135,-5.083175336937937,-12.050794743240514,-2.3106882143782217,stairs_down
101106,0.711479167343676,0.19624109563305972,-0.8990975421905517,-3.394888964450774,-3.521427396891957,-15.842420581716768,stairs_down
