time_ms,acc_x,acc_y,acc_z,gyro_x,gyro_y,gyro_z,label,segment_id
1,-0.1629579991091974,0.15170271959602832,0.6156915194541216,-8.602836703042623,-9.069695500738627,-3.8668386009559645,wait,wait_1
116,0.11471859486345201,-0.0019108020573854446,0.15105623838603496,-17.59799264182161,-10.750762149829676,-0.5906167561756105,wait,wait_1
216,0.016328573322622105,-0.13243454002439975,0.12172025378644466,-5.799473496896453,-7.063729132547943,1.1523312467131948,wait,wait_1
316,-0.12863306538220495,-0.016110007801651952,-0.013873042529821395,-10.718531340910031,-2.601430797768858,-2.782901666940104,wait,wait_1
416,0.023628731134999543,0.024353520011901855,0.14183131392300127,-8.830435681660372,-2.179963516306055,-2.6761874316780596,wait,wait_1
516,-0.02204482294442132,0.17889760051369666,0.07934475487172603,-3.9567307206225024,-2.7544639608873442,0.12080656970622045,wait,wait_1
616,-0.19978097846331075,0.03620002515017986,0.023729250633716583,-10.673429040499498,-6.596694030593987,-3.1343426473807634,wait,wait_1
716,-0.33554928428661074,-0.07756488571763039,-0.16558336091041564,-10.71975479854511,-3.9952538413150203,-7.796375777171707,wait,wait_1
816,-0.1581639880320057,-0.274539994713664,0.332802798590064,-6.1485879441510765,-6.093188279793103,-11.710641077290125,wait,wait_1
916,-0.0006844020675867796,0.16657178742587567,0.14789572852849958,-6.926643820811202,-7.738821188130594,-10.255326694419985,wait,wait_1
1016,-0.13514279433609916,0.3561000875473022,0.2277040092587471,-17.32001760298043,-15.458997667374348,-12.90559291786761,wait,wait_1
1116,0.22925828949604182,-0.0467161584675312,0.34195115068554877,-43.883371190874136,0.12617667253901074,-9.033751630231436,wait,wait_1
1216,0.18534617386488242,0.10560995372384786,-0.4651975911259651,-14.7252936240897,-1.2645711050137796,-13.48651502092918,wait,wait_1
1316,0.5012199216216803,0.5442790188863873,-0.15118658676743507,17.76247554986656,-6.7636955708953845,-13.042649201300378,wait,wait_1
1416,-0.0564963695926126,-0.15585750118792055,1.1146335592716932,12.107013176525243,-11.955790226980222,-5.814956255084403,wait,wait_1
1516,-0.35463191469088196,-0.0489034393787384,0.24808745659589765,-9.658246071329456,-2.8621275924440206,-3.8036926483055504,wait,wait_1
1616,0.2546989836901426,-0.08303834869265556,-0.21908815660476683,-9.377423697378028,-3.0002165151019304,-9.052713089141037,wait,wait_1
1716,0.15736394196180625,0.11698796456754207,-0.18235797010064125,-0.24313021514055064,-4.6597501390608675,-6.148310467716045,wait,wait_1
1816,-0.05808632393148727,0.01553892991542816,0.0909399155974388,2.2430334831019527,1.4426866437552563,-0.31477268299462263,wait,wait_1
1916,-0.002537126395339146,-0.027845746041834353,0.2741238151282072,-0.9734870121646421,-0.08432871047404425,-1.5886258016470378,wait,wait_1
2016,0.01363926117341034,0.04587620051205158,0.15167641611099242,-0.2479186046355527,-2.0281578662474673,-1.5377238168575178,wait,wait_1
2116,0.044820882772840555,0.004820259763300419,-0.1381611009776592,-0.9728654649501709,-2.9715557606840877,-0.8372960816832026,wait,wait_1
2216,-0.12804227814851327,-0.1990451932683587,0.0010334347009658812,9.022510846404886,0.9574714992214315,-0.6404931987334237,wait,wait_1
2316,0.002197327381186187,0.016100070929527283,0.17214345007836818,-0.8888968802021795,-0.334500937360264,-0.19096533904566584,wait,wait_1
2416,-0.05635366405313834,-0.04733224453926086,0.17655366773605347,7.332016828711928,-4.568872764606555,-1.0494568584251667,wait,wait_1
15,0.6479602695699781,-0.08038461931347847,0.41362113314568993,3.9941477775563015,-5.064102033680676,11.377843525075837,left,left_1
129,0.1520951712460257,0.053397243666648865,0.3821592424333095,3.0397831606335797,10.670480106325344,9.249305570247866,left,left_1
230,0.12704941291995345,0.11627718594968318,-0.016827800682187078,-1.7001371775839587,10.111016750088663,6.345728547938801,left,left_1
331,0.2508402259027585,0.2051508166670799,-0.06717910078167914,1.0711055698863452,12.415409877929658,12.194956984731036,left,left_1
447,0.20909641248770056,0.07157587443590163,-0.11666940013766289,-2.3140962653306465,17.94852136512125,25.592705159659438,left,left_1
547,0.15533760549966244,0.009248305338621138,-0.25411855345368384,-9.424347950749661,24.54332172576785,38.77680074848161,left,left_1
647,-0.127839430786483,0.14602993465662,0.33765199218690395,-4.504045304759848,30.933803807582688,46.743622188843695,left,left_1
747,-0.23213384493235498,0.35371523823738094,0.08439268591105938,-11.958937236640306,35.68081260149823,52.1107199518426,left,left_1
847,-0.30288634722139685,0.11516484079360961,-0.03680442078411579,-10.883622989564763,42.0781214573885,58.76655146781785,left,left_1
947,-0.18643373163957147,0.07246902388334274,-0.5393570523142814,-8.828039992808991,45.87739710773516,68.7682296958993,left,left_1
1047,-0.37758265523277224,0.5283423218250274,-0.9115133716493844,-2.5562708676372035,42.46611376828566,68.21344758056502,left,left_1
1147,-0.30740945066902786,0.6643839464306831,0.6108557698607444,-4.785701815563664,39.46880819443062,60.46947472225294,left,left_1
1247,0.22583982282206413,0.5269195955455303,-0.6877998933315277,-14.007172657396437,36.09446593310713,59.91227471995247,left,left_1
1347,0.06887355667464434,-0.1587701737642288,0.32758126454949377,-0.703260129245755,39.97715868378716,54.698347364185686,left,left_1
1447,0.2734426279310137,-0.00011982698738574981,-0.1887163992166519,-1.2444307981421159,35.61570723832967,47.96634899368104,left,left_1
1547,0.11935052898041904,-0.048503626406192775,0.17445523415207861,-1.0690653710369213,28.02436861739987,44.27909527591175,left,left_1
1647,0.03216602039374411,-0.02674479906260967,-0.019159458500146866,1.8422898493546143,23.109876754846443,37.20712082437513,left,left_1
1747,-0.11164375399537384,-0.10434884774684905,0.279264100626111,3.2198075238046635,14.65597403420324,27.419341922983676,left,left_1
1847,0.1327422177340835,0.07818038726747036,0.08835983597636222,-1.0621977225481791,10.625128504010107,17.269235146501384,left,left_1
1947,-0.17336517389304934,-0.0650853433728218,0.08211948028206825,-5.065423675285074,4.192647588988859,12.847650715591099,left,left_1
2047,-0.029975451546907422,0.03165069128274917,0.7437883225351571,-0.7208280161212625,0.1552781209006649,16.851249767411407,left,left_1
2147,-0.16462799641434103,0.15665128191411495,0.23523206667602062,-12.504265516389648,-0.42563337669139384,18.006135718317598,left,left_1
2247,-0.7945316906921565,0.022431612038612363,-0.2586871765434742,-9.103485300336326,-5.5177768587312634,16.638405704948177,left,left_1
2347,-0.8902310757763683,0.0796118813753128,-0.763766696202755,-4.776773904544811,-2.5977213647193067,8.261015617161103,left,left_1
2447,-0.6181972917299717,-0.05459317545294761,0.28968437235355377,-2.498225999079731,0.8341234054528788,2.1133619148224376,left,left_1
16,0.3211818823685869,-0.12221242121756076,0.7024176167488098,6.106259981204039,-5.713226136925763,3.4526271148258303,left,left_2
129,0.5921157058164477,0.09309154067337512,0.26153964336514474,0.3399834448296686,10.962264080120997,20.751294613677857,left,left_2
231,0.5218152216112241,0.22796762863099573,0.45752340323626994,-8.16795172839874,27.30195999945513,32.99058891763239,left,left_2
331,0.4822794396344572,0.30104864693284034,0.3589244973182678,-14.2684897186256,34.353273128752456,45.34106674844367,left,left_2
431,0.6140234401114285,0.11214929236471652,-0.235664028352499,-21.97926871134506,35.914603146598594,50.097921260047784,left,left_2
532,0.5823879463978111,0.10752689326107501,-0.6479863538593054,-10.439244051974564,30.983172414903542,51.797426004803285,left,left_2
632,0.2608092101987451,-0.09654840312898158,-0.1837666678547859,0.1001117902121694,31.260474680111475,45.36198420277683,left,left_2
747,0.604062821784988,0.1814578063905239,0.001757072800397873,2.385693723305305,20.56483727952568,46.1625575055832,left,left_2
847,0.12618461278416215,0.16593173595666885,-0.0790454796642065,11.062203408056623,15.972858411843793,41.60172942315845,left,left_2
947,-0.28150183308292176,0.15854863996803759,0.09994038365483283,4.757578938542959,17.192887291958982,31.060094005336225,left,left_2
1047,-0.48964719192348416,0.5413707302242518,0.6761585553765297,6.83318804994521,9.875890903005558,27.912440599923578,left,left_2
1147,-0.20120595149882137,0.11259528256654738,-0.11861351994276045,-9.990197533860307,8.304457327829677,29.443135511794917,left,left_2
1247,0.1417393430569209,0.04328033879995346,-0.377947177696228,9.698985588407643,18.032882739107368,39.1108277347465,left,left_2
1347,-0.6001973419958725,0.2517430564939976,-0.5342939237058162,-2.6912123537482064,21.28010664224046,40.54919727205949,left,left_2
1447,-0.7723789686601609,0.22273089702129362,-0.1752846707135439,2.4546446964199955,14.737318172123507,42.536188094075406,left,left_2
1547,-0.8401162878464907,0.1168470947921276,-0.003385550785064697,-1.7607093228560415,18.072784704238583,35.50889674008901,left,left_2
1647,-0.4635611855631694,0.22075112138092517,-0.010502104791998862,-1.865151986610528,21.25006576272345,31.664548671409428,left,left_2
1747,-0.7808703912168741,0.06867021612226963,-0.17296704142093658,2.880388316633461,23.913424605036347,28.151061796314433,left,left_2
1847,-0.5881951348392293,-0.05538578713536262,-0.33207506883740423,0.5283589949215625,23.542545333104655,26.21849050651059,left,left_2
1947,-0.46201154496837404,0.12420388729572296,0.25751637919843196,9.921100778895518,19.16093458431187,21.255024480060882,left,left_2
2047,-0.3614842648036778,0.2170686334758997,0.16477555165886879,-0.1445978528130938,17.46573798137536,16.779672800004256,left,left_2
2147,-0.09368203564612194,0.08688508724868298,0.2960667668670416,-3.128561746021994,16.268373376473566,16.364822477743317,left,left_2
2263,0.1882153908919543,0.05095861834287643,0.01889525460600853,-6.902538802569757,8.87133229308947,10.358882607521132,left,left_2
2363,0.27459864783203225,-0.2926221793711185,0.27629882107973097,6.199141162406103,2.252967566362913,3.581923663031229,left,left_2
2465,0.6711695879828184,-0.18566519495248793,0.06945815162956714,-4.616166275080193,-10.993630016336988,1.6010125631502676,left,left_2
8,0.12775325034037233,-0.11100392172187566,0.4948059629261493,6.688692409845828,-2.3404232294864604,3.923311031900453,left,left_3
108,0.2341174930302426,0.04598667514920234,-0.31708734306395053,3.729995760934759,14.92688153480075,13.310729003581502,left,left_3
208,0.5184581662682816,0.26373919923603534,0.22079086886942384,-7.893975765316604,23.887111301258873,28.10249744376835,left,left_3
308,0.3204046874510124,0.2463695467621088,0.19740590162873267,-1.6194222708409791,26.456196457552668,38.34742773649793,left,left_3
408,0.6152066585466265,0.11736118179410696,0.39516836161017416,-4.66730005941467,26.845877532722113,50.59101310679851,left,left_3
508,0.9397821654088795,0.07165244680345058,-0.29203531939387317,-3.6806775262590357,28.20014012059556,54.518013294624424,left,left_3
608,0.46883207517080006,-0.05018412683904171,-0.31069325811266896,-2.83505272257409,20.389255314079453,48.49052161624991,left,left_3
708,0.5688826046692207,-0.10251607936173676,0.11675474033355712,5.578974073034108,23.13269983195804,54.97502808217914,left,left_3
808,0.3980817283062264,-0.0695037443369627,-0.12396131071150303,4.14484864451664,26.80225140694595,46.19577954570614,left,left_3
908,-0.49897272721678015,0.4226145869404077,0.02593523624539375,9.004186302635388,25.86562073587293,45.969375850193146,left,left_3
1008,-0.034149960752576584,0.198761115629971,0.4282411946505308,-2.8563851108993323,20.219426075461673,43.53620633574072,left,left_3
1108,-0.10989205148983747,0.43337826527804135,-0.2655950562357902,2.2018540591525344,23.066559695130223,44.89542081076243,left,left_3
1225,-0.4121525218978524,0.29897651683390136,-0.014932780715823173,3.679144148790368,13.490101724017084,45.78825289378275,left,left_3
1325,-0.31973047798387705,0.48210897843837736,-0.28629706800282,0.8105229674363691,20.197035007815078,49.057485373968916,left,left_3
1425,-0.6612732670642435,0.2949602669298649,-0.33530279871225355,2.6349175077221383,30.520331475986797,51.91972395698695,left,left_3
1541,-1.1366950958888977,0.23772709836214778,0.1656242774426937,2.855057492879411,20.923608333606232,47.4934164502656,left,left_3
1641,-0.5543990655582398,0.25518939755558967,-0.14654139131009578,-0.48677616292429016,30.18975032015818,39.982933608730406,left,left_3
1741,-1.004088998689875,-0.22838994569629428,0.15822306127548216,2.8217628819965377,24.408792612327986,33.94397745783403,left,left_3
1841,-0.8449874010141939,-0.01824643530845642,0.03445639635324478,-1.8725121557714512,30.06214531098942,30.201528981381866,left,left_3
1941,-0.6722131056863814,0.12662526922374964,0.3220651314765215,-3.635193162141805,19.571901944029662,24.679580584615017,left,left_3
2041,-0.11484927203841507,0.17173370023369788,0.42972997190356255,-10.236351575132042,24.667919744154513,19.292272291862044,left,left_3
2142,0.12280768369697033,0.179915253123641,0.19330723413825035,-1.8857851343194902,17.880747105534503,14.92055848717661,left,left_3
2258,0.6057344813242554,-0.2701613412380218,0.17779226962029934,5.890875515256387,7.5910824888359265,9.169583602255479,left,left_3
2358,-0.13475037921871988,-0.24868776057660577,-0.488808768337965,-2.6462210439116864,-4.905832036459494,-9.384251325227101,left,left_3
2475,0.06597255626982078,-0.24509967295676469,-0.22676585162580012,-1.8217864752398822,-15.165079259463067,-10.68979161242991,left,left_3
7,-0.1617793837838806,-0.08562778066396713,0.5072270530819892,4.286268991942223,-7.253864096681349,-1.8628179829050877,left,left_4
107,0.025722785371378995,0.17522651078552007,0.029543489870429037,6.601894792760129,2.5891042273076894,4.115078411245493,left,left_4
207,-0.2053576460844837,0.13552724534273147,-0.139895961946249,1.0636672804367897,6.411295375763162,13.653449113112524,left,left_4
307,0.4093327152367681,0.05524287153333425,0.3276630976140499,2.2608555810806314,16.62720077961477,19.052259444427797,left,left_4
407,0.500090369602479,0.06678074911385774,-0.23035364698469638,0.16709821682662154,12.577065941431874,24.330694521810766,left,left_4
507,0.16941504802778362,-0.16067892999500036,-0.3138648738861084,4.032984233176994,12.80557931162476,23.38308090655237,left,left_4
607,0.5587365833058953,0.017618366537988185,-0.04044248502552509,0.5280458734367997,12.947450024648742,22.583144518886108,left,left_4
707,0.7107691924434155,0.05079290638715028,0.07995791833400726,1.3037116107742435,10.577204481698713,28.707848572170118,left,left_4
807,0.2223897189008072,0.24927286698818205,0.15304770446419716,4.342132682276934,10.855347713948202,28.174132467783444,left,left_4
907,0.6821946206703782,0.1913938017323613,-0.3247118465930223,0.1824253614273285,8.020647599890015,22.64883215568141,left,left_4
1007,0.14654953808393328,-0.005557634127140045,-0.04066635690927505,3.3920027826396204,6.1747172597077835,28.58971703538016,left,left_4
1107,-0.3001475516409613,-0.01708265222609043,0.049882513543963426,-0.8336400628473946,8.064836362499058,26.402482142372396,left,left_4
1207,-0.03177506658108905,0.3137535224661231,0.33315000459253785,-0.14197055117973964,16.39736491404384,30.087389690161785,left,left_4
1307,-0.012657894586399198,0.25514965006709095,0.05599427442252636,-2.994867623208164,15.710826742072717,38.776647069225284,left,left_4
1407,0.05007029120102525,0.12685644763112067,0.0699701928049326,-2.324139631618327,23.731412016486555,50.060502068679874,left,left_4
1507,-0.5182407606579363,0.397121249243617,-0.14559212776124478,-1.2338158303982698,19.55813399021021,61.714208396596064,left,left_4
1607,-0.5278654615608975,0.3692588443279266,-0.04412848006188869,-1.9676122946801238,31.63296587668729,64.62712015306641,left,left_4
1707,-0.7971919959425926,0.2782198522701859,0.009932780471444129,0.45471376085636933,33.16574911889736,61.10860967383688,left,left_4
1807,-0.7044252302441746,0.15400281323194503,-0.20938392419219015,2.4078403982456598,28.97327996860057,58.16675157566401,left,left_4
1907,0.05207335638543591,0.20200930377095935,-0.4861556234806776,3.484717264537254,44.65682864267555,61.07355714301637,left,left_4
2007,-0.9521166001945733,0.08997837708890438,0.12002572482824325,3.273708601970054,24.389584412834616,43.41366932693611,left,left_4
2107,-0.427791770382598,0.29373803165853024,0.48829146646559235,1.118277417615392,26.73147869431357,42.61593396772989,left,left_4
2207,-0.06918197873642203,0.1478741012185812,0.19714812747538088,-5.431794168590912,14.426290140341344,34.237518497793666,left,left_4
2307,-0.14081758856950327,-0.1640028137207031,-0.1681821452319622,-6.068914214369701,13.49151471940163,26.58816595760107,left,left_4
2407,0.22123287701588124,-0.30845337023138997,-0.1595329748302698,2.247136719245838,14.967997566056933,17.695927309235834,left,left_4
8,0.06553554852546659,-0.05992372282594442,0.7858119392722844,-0.5881876100694661,-3.6497871419640067,2.0193095696211274,left,left_5
108,0.26842934807995333,0.04941840316355228,-0.17950842588841914,2.083763503497599,6.508980314385861,12.038504671602723,left,left_5
208,0.37612628241199997,-0.007220891164243221,0.21106500914692877,-3.4290661638404596,19.161045574885883,27.97232940611354,left,left_5
308,1.02610077788122,-0.0032648470148444173,-0.12167290751338004,0.38830022969876526,10.68612465461926,38.09059554823252,left,left_5
408,0.6710147627472877,0.05399550182074308,-0.30054712715148924,2.9416359035814352,5.914809778768581,35.78910866588337,left,left_5
508,0.5145312386155129,0.021140110923349855,-0.053009705653786654,6.603383773999192,12.938610052315452,37.7640715247709,left,left_5
624,1.0558004081614314,0.20572335585802792,-0.30443419771790503,6.865912766919211,21.909257564805138,45.21920592836689,left,left_5
724,0.22890428842660038,0.8922536676451563,-0.787970578610897,2.891317046192305,27.92618977072281,48.57022650876937,left,left_5
824,0.009541132539045065,0.3702659755438566,0.5602548789143562,6.878671133401971,12.323166465641345,58.770048524672895,left,left_5
924,-0.5242060257378965,0.7615729855507611,-0.7028180142432451,2.232030048349062,17.795499514503575,50.86117782432378,left,left_5
1024,-0.5215696128197014,0.5157143109202385,-0.18654490039646623,1.9524296379288317,24.11049093051685,53.01940490392651,left,left_5
1124,-0.6243854057803749,0.2918631776973605,-0.12954407927989958,-0.44803463626089024,20.503874426088732,48.80744922392767,left,left_5
1224,-0.6843950533241033,0.3974357220202684,-0.05348141481876373,-0.595525581115587,20.08371875438998,50.52103440365715,left,left_5
1324,-0.38619569487515837,0.27189386411905286,-0.034626492223143575,0.931483589924885,19.59016928496486,48.179286971245354,left,left_5
1424,-0.49517746311966326,0.22567162664830684,-0.04228197541236877,-0.42142960870066254,25.336407433696586,45.06954965346274,left,left_5
1524,-0.7290465343467891,0.22629209663420916,-0.21959201447367666,-1.576369987676802,24.76583904364311,43.01155218483537,left,left_5
1624,-0.7873509854078292,0.3448071246385574,0.15649053839445112,10.776891892273206,14.865321039811423,44.15603917273021,left,left_5
1724,-0.6191246357079595,0.23473873020112512,-0.3551169217288494,9.236137819301728,15.310097835920777,37.0442720390891,left,left_5
1824,-0.6967690894678235,-0.08756693203300236,0.5639701000452041,7.107409899837466,13.509227961240413,26.694064625587533,left,left_5
1924,0.021139562934078274,0.31642128037065265,0.5404980390429497,-1.3683024685992324,19.875061597887967,28.935652456462968,left,left_5
2024,0.1084801023326814,-0.05175123002529144,0.11281447827517986,-3.526814495156393,9.859900576384913,23.168725664735273,left,left_5
2124,0.4904097007285803,-0.24094781397432088,-0.3542588435947895,6.177327672631198,3.7452193988210714,6.900349300053945,left,left_5
2224,0.1432483776466921,-0.241680512163043,-0.3980903865367174,4.711104196996078,7.32476402158702,5.685094722168596,left,left_5
2324,0.010646664361841977,-0.26132190896123647,0.0066834232866764065,9.53109014709862,-4.606389286170143,0.23856271289608974,left,left_5
2424,0.008580416014418005,0.0762006116271019,-0.12322364408671856,5.482999243024851,1.0523571275014834,-12.1700011810511,left,left_5
9,0.06297162088816985,0.05030015443414449,0.597389554566145,3.4056582517811798,2.995353633856293,15.586863931278863,left,left_6
125,0.6321386502556502,0.046857028242945666,0.36270518490076065,-0.683256746322609,16.77417791281698,25.54120553331754,left,left_6
225,0.7060140338055789,0.037975802651047705,0.11550327896773814,-4.361348565733119,23.127403020256697,42.28888743479675,left,left_6
325,0.3713581181621179,-0.07818126405030489,-0.650128042063117,-7.943155688661635,24.59183143680057,39.824951333228015,left,left_6
425,0.42850773663222785,0.12199030289947986,-0.14821195487082003,-1.4006729762317445,23.136331785049194,41.005255833130406,left,left_6
525,0.29853838114496317,0.10207067368179559,-0.051180152139067646,3.5840709037515524,13.260673108475418,44.936029700472744,left,left_6
642,0.12049734266167506,0.07867401600331067,0.0680178896933794,5.392083448756457,15.14379980510389,35.99978585083241,left,left_6
742,-0.19327406252101062,0.5622673877805471,-0.09298924934267998,6.176045731501351,8.797193150969921,33.065830281529244,left,left_6
842,-0.08389617109838873,0.19493863473236558,0.07712649430036544,7.723692319119016,14.210170148397447,41.37903452036477,left,left_6
942,0.1070407171793282,0.21508096679002045,-0.35674773780107494,3.224267637332682,9.033676498150564,35.34550495476397,left,left_6
1042,-0.3824376209832728,0.5264309352457524,-0.42030514095425603,2.451167489802224,14.772053099147607,37.10508462836431,left,left_6
1159,-0.3194104522492736,0.14095891500264404,0.3619599194914102,-3.2174438514650157,26.90235807451624,36.5488271921693,left,left_6
1259,-0.3040062180968001,0.308404854914546,0.19622575193345546,-1.4844314793019049,17.83142460199055,39.94698632312863,left,left_6
1359,-0.3036096565272659,0.3429734794706106,-0.22280863843262194,-1.3460122529646017,20.015731051391676,49.073365563789196,left,left_6
1475,-0.33899551575034853,0.2808794268682599,-0.09959551573991775,3.1821676319491927,22.5709150651772,47.318853890553,left,left_6
1575,-0.9841985225014388,0.23092852426320312,-0.1424234345972538,0.14734118762105886,21.090165911611578,44.33175944950713,left,left_6
1675,-0.7099423131652176,-0.1273217270553112,0.14266367309391498,4.945267841179856,25.055229036134673,37.92490540425177,left,left_6
1775,-0.14453951343577354,0.1610389954790473,-0.14616788182258605,2.231501349018621,18.902840518597305,31.133508293630108,left,left_6
1875,-0.5681853431200609,0.20076310310214757,0.38632922159433364,-0.4398001495253523,21.711644824191037,32.593696870246696,left,left_6
1975,-0.0024180574597790837,0.2197805227831006,0.2297995202332735,-3.090005541600683,18.527622368995363,29.02546602895405,left,left_6
2075,-0.10851186744412407,-0.0002703413739800453,0.08863046961128711,-2.1662455082449075,15.199204592103742,24.41248774466896,left,left_6
2175,0.13307559614060446,-0.24917583635449408,0.3532224862843752,-2.426380733304248,9.042363645001174,15.998406734434226,left,left_6
2275,0.4617594333708286,0.03200374250411987,-0.04571896412372589,-8.123699786539875,6.630567926895843,8.64889693748425,left,left_6
2375,-0.0423409025253728,-0.31720629326850175,-0.1698334195703268,10.496450301368005,-0.3417877887093156,14.947040838136042,left,left_6
2475,-0.27873399407109245,-0.09942863474041223,-0.3763602007657289,7.105895732275839,3.797702145516626,0.08831696065005652,left,left_6
7,0.47490905699692665,0.2591401810079813,0.7973100693643093,0.6710543465661168,-1.8218917028417827,10.465296101016285,left,left_7
107,0.5717183760844171,0.02018091050237417,0.41116438764333724,-6.0173112814166085,15.38013630321738,22.336035104904216,left,left_7
207,0.8397495734259486,0.2918810056149959,0.22291794402599333,-1.366939418972992,20.8507746113918,40.94584001754046,left,left_7
307,0.41166393466331064,0.09527589897513389,-0.4335235189676285,-5.776879658008874,15.744967442639027,38.92350638166432,left,left_7
407,0.020480112644657492,-0.2987146510273218,-0.33908640890419484,3.3454866330708946,8.678411892435168,30.161555299264368,left,left_7
507,0.6015080592682585,-0.10008008438646793,-0.005748772785067558,11.740575235101351,11.042576859476592,31.607055554070847,left,left_7
607,0.5924109259033575,0.14675035788565874,-0.16666706449389457,8.185764007980488,12.222898434851912,26.92759903859402,left,left_7
707,-0.07137772151529788,0.3761424663618207,-0.018149989196658133,4.658951006927976,6.780412032002167,28.03475904267475,left,left_7
807,0.13852240857072173,0.3207812291458249,0.5706476781129837,1.1724566125460487,5.928347213703546,36.64142065165258,left,left_7
907,0.3438422981943935,0.33789573781490323,-0.06973053883016109,-1.5151686112274316,16.643840827980213,39.93343181272074,left,left_7
1007,0.25964571937732395,0.3948579804867506,-1.0999690741032362,-0.8197697629120969,27.934662620388213,57.90785325517468,left,left_7
1107,-0.4287644878722727,0.44581542978584765,-0.012012509354948997,7.285680825382562,27.299489178522876,65.52959987828937,left,left_7
1207,-1.0063837585635482,0.6423661758899688,-0.3042301995784044,4.104550101526741,23.46079309138148,58.27388992298483,left,left_7
1307,-0.6064648414254188,0.2731663682729006,0.3139180653780699,4.6483428693733,33.73567717871615,57.34632974312959,left,left_7
1407,-0.4697917870484292,0.33380613041371104,-0.40917642869651316,1.0649727003419085,30.666910750669857,53.81023494188185,left,left_7
1507,-0.620640374033153,0.327084713204205,0.0544411997616291,3.195186826280883,27.926480053762536,51.893605313600816,left,left_7
1607,-0.581309357380867,0.23852730882912873,-0.5647025059729814,3.5883466021719803,21.10033947838031,46.62988587878464,left,left_7
1707,-0.5728427039392292,0.23699381565153596,0.8441647595196962,3.3741958391431623,19.134952544709144,30.570902196601573,left,left_7
1807,0.1062691117523238,0.43465573786795136,-0.06621990036070347,-5.965775796581569,13.911769428843344,27.904088986115944,left,left_7
1924,-0.13300441233422605,-0.011960779167711735,-0.06332359439730643,-3.181674577668482,13.271847297957558,24.445009690401978,left,left_7
2024,0.17274196396078914,-0.22258564333170652,0.05813830071389675,-0.49967139999471555,6.384956885663123,15.883721028080542,left,left_7
2141,0.08533413147963582,-0.506847113853693,-0.24016250881552695,-0.17801345942989694,-1.298136255420809,5.556543731799787,left,left_7
2257,0.23318160041961816,-0.39635523330718275,0.049207975283265114,9.329982057176766,-4.801630243594957,4.898890002941823,left,left_7
2357,-0.3445377331126481,-0.20377163726836442,-0.19870587831139563,6.976389369196874,1.5028909193075106,-6.939794496284415,left,left_7
2457,0.04766275513526052,0.17870704637765883,0.3285854731559753,15.139778531230046,13.014213416238324,-0.2998889537412244,left,left_7
3,0.533035813403502,0.32797055612802506,0.5295715713590383,-0.35439706496909956,8.255428522420033,7.7511317503358965,left,left_8
103,0.5340164950039238,0.29285394230037926,0.3204161952257156,-3.8538066000195803,16.67191632056355,22.32370661345234,left,left_8
203,0.7024469889737666,0.12680413292199372,-0.3380325159370899,-9.77598145714755,33.84201297880949,38.88215300133447,left,left_8
303,0.8539131233349442,0.07818155631124973,-0.37675007686614986,-6.854901648203503,31.100211121426295,47.28176254826524,left,left_8
403,0.14682550548110157,-0.17459522714465855,-0.20162381158471107,-2.794193036855193,22.733014237201818,41.99403841361106,left,left_8
503,0.30652386347353455,-0.08357523204833268,0.20497546010017395,5.4158311627269455,20.449717856159698,46.26425902232469,left,left_8
603,0.5414024405367672,-0.038893502017855644,0.057383682954311364,4.864708321240494,16.41779400985135,41.47344139507268,left,left_8
703,0.22909297939911483,0.0965390507787466,-0.18450141187012195,7.664579593173495,17.043900375593495,37.20745550364446,left,left_8
803,-0.24723796362709252,0.516395863443613,-0.3799959269195795,4.260772749544212,17.062553622216797,34.22370102510273,left,left_8
903,-0.054159770738054065,0.351257031430304,0.5365647912472487,8.555263581699837,11.049954317553853,41.94978903307313,left,left_8
1003,-0.062075758893834425,0.3895300634622574,-0.44447219848334785,-1.411603199894469,19.025623414212042,35.68038229958052,left,left_8
1103,-0.2634088713031262,0.15073679717332125,-0.17011866625249386,2.8324487129530227,24.293254839875342,41.856939441495975,left,left_8
1203,-0.741159508401528,0.30565088003128765,-0.06527998916208744,-3.6286784423340825,17.62960446484772,43.58936228295635,left,left_8
1303,-0.6062815938130021,0.2672799405828118,-0.2303396184593439,-2.4420920893859814,27.15868995142494,50.87561001404002,left,left_8
1403,-0.5955851354926824,0.21736557059586048,-0.13804711920917034,-1.638924168468658,28.352296244735935,47.44242908811145,left,left_8
1503,-0.508671150943078,0.40037323677688835,-0.12301029359698294,-1.1164800106466208,31.166163428051938,50.61395571222059,left,left_8
1603,-0.10798236367730424,0.2892114941447973,-0.5529202982425689,-1.674855445814568,31.132176406741955,56.505256833639635,left,left_8
1720,-0.42557022187560795,0.15314531961977482,0.3074064915269613,2.76725028845702,21.665769858630647,44.54058906828568,left,left_8
1820,-0.21697335640788076,0.20613748961687087,-0.09531097028851508,2.135029409303834,18.798572558275183,33.17766779899903,left,left_8
1920,0.1986139257116243,-0.1894116880044341,0.3199146754443645,1.6507538426677086,17.216357529494438,28.7563907266014,left,left_8
2020,0.09826339035332202,-0.20845219630002973,-0.3675596391946077,-0.41129638273671393,13.601801783929826,22.418139101369647,left,left_8
2120,-0.18422484168475492,-0.2826549121081829,0.13846037618517876,5.952150849847864,5.339558440265413,18.889291130831293,left,left_8
2220,-0.35779476263597604,-0.1939677438735962,-0.09462766419947147,3.882881434655855,0.896605655815038,3.0524593514028884,left,left_8
2320,-0.04250733600030653,0.04606646238714456,-0.0025771570116281508,9.191630599122632,8.041805818391422,-1.3575263510796565,left,left_8
2420,-0.11559123124582692,0.18842647635936735,0.5345201336771249,3.887856800579386,2.0272889381189945,6.638054241113,left,left_8
2,0.005477353698853403,0.04547229588627815,0.31561668598949905,2.9043729527907844,-4.842316399820254,4.7575528984467494,wait,wait_2
102,-0.20764473410835488,-0.05759294179081916,-0.004315525111556053,2.175862628039697,-6.714370506030491,-1.2353528364049344,wait,wait_2
202,-0.15023856532759963,0.023897300677001476,0.057609892925620076,-1.130440383701598,-4.103097832554467,-2.5283266427519773,wait,wait_2
302,-0.24132380767986178,-0.23732494730204343,0.01189385141134262,1.0404757999968346,-18.759099187514387,-7.97166233693633,wait,wait_2
402,-0.26252284571621565,-0.05770896938592195,-0.3316495369017124,5.1478653392275975,-12.783715876091549,-2.596839416542729,wait,wait_2
502,0.21676391490828245,-0.07022387530505657,-0.020623101311922073,-2.4433874774507562,-8.066363763552202,-6.287000447020915,wait,wait_2
602,0.0283098564222455,0.044941550010442734,-0.11207856521606445,3.472195606797917,-2.8053742699699153,-3.287674417832026,wait,wait_2
702,-0.08738434200771153,-0.05713175401985645,0.011012392401695251,3.369170100574502,-3.14213482600669,-3.055970922409921,wait,wait_2
802,-0.15121676270999013,-0.15456015485376118,-0.06258125159740448,3.25496677633095,-2.0441989924000654,-4.178413047871729,wait,wait_2
902,-0.09836297827027737,-0.038842064091563225,0.2648123814254999,0.5070591567165835,-3.0538066062166735,-7.238217840840143,wait,wait_2
1002,-0.0072161419238895175,0.03812894738614559,0.1575198814421892,-1.123815420371803,-4.6007795664274465,-5.716177205534032,wait,wait_2
1102,0.02887801169902086,0.03847556886672973,0.029502573338150977,-1.0933535237254866,-2.533563903741496,-6.345541998397095,wait,wait_2
1202,-0.04990479844100773,0.05538461809158325,-0.007198971593379974,0.3428910777036842,-3.1947010290761657,-3.2382515958846367,wait,wait_2
1302,-0.13204619829393924,-0.10725509058237075,0.14825813210010527,-0.7887953886346181,-1.8984165019723709,-4.51674646840831,wait,wait_2
1402,-0.05898001223504543,0.04044423859119415,-0.019975451058149338,0.2625182140277343,-3.8942716288704977,-1.3039263348462757,wait,wait_2
1502,-0.1715509640779346,-0.009223170897364616,0.02016834328174591,1.1548172221276678,-0.8243450291606534,-3.354046567648213,wait,wait_2
1602,0.03920768253356218,0.016931261056661605,0.18274959976673125,1.1559150683150414,-1.4772450530779937,-2.7131396088614745,wait,wait_2
1702,0.0375605729136616,-0.000488075777888298,0.15290274303555487,-0.36162361855438463,-1.1721622740815036,-1.1192509330155305,wait,wait_2
1802,-0.04283924396894872,0.019471008667349816,-0.001799158376455307,-0.6170530033581448,0.6909941767134699,1.349273134684754,wait,wait_2
1902,-0.0958957113739103,0.0067179100781679145,0.11037468390762806,-0.1065350628582507,1.1342342336204227,-0.0851160565285535,wait,wait_2
2002,0.004919847680255771,0.03680149817466736,0.15928221493959427,-0.9347186449922381,-0.2736428579579661,-1.3691652068687699,wait,wait_2
2102,-0.03484196160472929,-0.05666939720511436,0.1616723249465227,-0.3729150951911793,-0.15907019657113103,0.21410786090309378,wait,wait_2
2202,-0.07910612381026148,0.03348550549447536,-0.06170096163153648,0.07439902281334071,-1.4642486971913404,-1.3185735687996623,wait,wait_2
2302,0.03390592286363244,-0.028857261171936988,0.1210603285729885,0.17059507357846973,0.26764184308102235,0.21990714507568418,wait,wait_2
2402,-0.05644691356085241,-0.016537293303012846,0.08337327973544598,0.005671018022454318,1.4739475658127585,0.011099537648946736,wait,wait_2
11,-0.10710698734857141,0.12716332162320612,0.4147445842176676,-11.407694866843379,-17.066161669645858,-2.9623382069557436,right,right_1
127,-0.1744173498271033,-0.2735381241947412,0.13826689943969248,-2.589008604659309,-22.139807185144335,-10.426031051025173,right,right_1
227,-0.3586718377314508,-0.18543167845755815,0.1146907935410738,-2.6799869378472905,-15.458741535280472,-23.66662254956711,right,right_1
327,-0.2374562272652052,-0.24740765763819217,0.33917233362197874,-1.5598892748180901,-20.52006197442166,-32.255264411967154,right,right_1
427,0.43703817602507766,-0.022419921600818633,-0.03234393424391746,-1.8753648269669894,-27.514827967580455,-46.727523432969974,right,right_1
527,0.4027649907516315,-0.1852855479851365,0.30236674379408357,3.8812003543463858,-34.993487250225265,-38.34008186804558,right,right_1
627,0.04596620774990879,-0.094149233032763,-0.3455921375364065,-1.1396455577120712,-41.10190984007526,-57.98573107209116,right,right_1
727,0.0034496198640670624,0.37510201739817856,0.13176233985126018,-2.448615987260401,-34.92890439652821,-64.04893780963567,right,right_1
827,-0.6406540382098406,0.5078492766335606,0.05596797093749046,-2.711568025022137,-42.196423748907705,-59.013100806287795,right,right_1
927,-0.5948224805571138,0.6666504300579428,0.0031739538609981536,-6.046046314141675,-35.7266465859236,-59.066376281813895,right,right_1
1027,-0.9357003759879619,0.5147171165764332,-0.870698546180129,-5.301056663914052,-44.48130985647914,-63.70377419992908,right,right_1
1127,-0.715834878335148,0.2659776258125901,-0.35288054097890853,2.120824536820911,-44.78436534995261,-66.45170956718695,right,right_1
1227,-0.08323770718965678,0.2510734866693616,0.05878828905522823,1.5139778104343222,-36.44417161861178,-64.32196096132859,right,right_1
1327,0.12032708239499479,0.2788987744450569,-0.14314941078424454,4.688245261391337,-26.16886918219045,-49.37194045316713,right,right_1
1427,-0.024108641872741282,0.48631753604412076,-0.2009896053344011,8.97130747951824,-19.1336411483885,-35.17278996122185,right,right_1
1527,-0.11488357616681605,-0.0014390928924083708,0.21277298210859297,0.8266053415282517,-17.304789696225885,-30.568392102081592,right,right_1
1644,-0.09832777909273281,0.060005263629555695,0.39873394513726235,4.939824607298179,-14.139603195213814,-37.61919638228576,right,right_1
1761,-0.031606555313500574,0.016032850912213324,-0.07613572969734668,1.9770306986587483,-21.148283991259216,-33.51409559675718,right,right_1
1861,0.39249296838846054,0.09696575175821781,0.5453811349093913,2.3493112265873513,-22.262484212826934,-34.3296884855484,right,right_1
1961,0.5549133352233097,0.360602659663558,-0.19912498050630092,-4.699621368340817,-17.019726628573526,-34.82232270962474,right,right_1
2061,0.5751083107836544,-0.327412922245264,0.4206342267781496,-3.4513065404384906,-19.94987265986712,-33.89787026584186,right,right_1
2161,0.9427547514788805,0.08127776876091956,-0.17573533709049224,-1.4972798121826394,-11.695723944142816,-30.727272547459844,right,right_1
2261,0.9885062296327203,-0.00788578481376171,0.08978139321208,0.9081449402526572,-14.089613040678492,-18.108730282293067,right,right_1
2361,0.2962243685815483,-0.022632103046774862,-0.5250146387070417,6.291218088833398,-13.326125103744356,-13.91939618882531,right,right_1
2461,0.28038353311009706,0.34677754792869087,0.4804197101771831,3.0185581343443535,3.4959653054397957,-4.115219283897124,right,right_1
8,-0.0984328560355585,-0.0010129764348268508,0.5556202048510313,-11.249963600792983,-6.248841460788523,-2.1100398815648727,right,right_2
108,-0.11277070306553505,0.11943360415399074,0.04614624962508678,-2.4077180951708343,-2.6153861549036637,-3.8425355072285896,right,right_2
208,-0.5605818458463996,0.10794482641220092,0.04556815747618675,-4.89428858987535,-10.014450681829375,-11.74362320701847,right,right_2
308,-0.8994744857441633,0.2273509580373764,0.15374036290347576,-7.605465159680681,-22.500007456308712,-24.55906701935202,right,right_2
408,-1.1494940063811838,0.03493628882467747,-0.367402402806282,-9.34740757729676,-30.66498463732391,-41.14836195662051,right,right_2
508,-0.6351612860124558,0.07330372114181519,-0.0758212569206953,-5.794140826701965,-29.8684992027358,-47.99641890150202,right,right_2
608,-0.38224684765152633,0.2934577534124255,-0.12852759571373462,-2.1934687212858743,-29.11267729937136,-47.36766925255108,right,right_2
708,-0.18676442489866166,0.3399631917387247,-0.16068506747484207,0.8827729752810284,-25.246544342334023,-45.62214269316804,right,right_2
808,-0.15452060829466208,0.20157529626786708,-0.17006664380431175,3.2459293688419657,-20.352346679351996,-39.6161353748278,right,right_2
908,-0.45370669449232515,0.24986031148731708,-0.13760697422623633,2.4238802437377887,-18.65399965166082,-34.84899801342823,right,right_2
1008,-0.17184327982170505,-0.07779577186405658,-0.19308043964505195,2.97070668279289,-14.711172207980699,-35.55510296982415,right,right_2
1108,0.13648742301124148,0.3435258526563644,-0.1295166067510843,6.232282094032651,-16.153685962572588,-29.050543068491752,right,right_2
1208,-0.35099929380957035,0.027254502150416374,0.13589666317701338,6.060529303389864,-16.186264257366258,-28.18364521374998,right,right_2
1308,0.005006265588384121,0.3331301308482885,0.07440262229442596,2.935919035246134,-16.151993783205718,-35.27798170462922,right,right_2
1408,0.019987438323465175,0.4752268177092075,0.05183949283063411,-2.887860330142044,-18.55702121073039,-25.920250296401985,right,right_2
1508,-0.4054940138567239,-0.03647358139455318,0.279243642359972,-5.568175543956318,-26.022281369770926,-31.285647342297555,right,right_2
1608,0.1449724706260953,0.0394312621563673,0.004796002104878425,-8.358077727908862,-23.46921812972269,-37.80239230110925,right,right_2
1708,0.8569171274565159,-0.39830315250456333,0.42947044418454167,-10.64853129342751,-21.434303285395377,-42.70679597425857,right,right_2
1808,0.9174198192141949,0.09258388341218232,-0.11580255417525767,-10.809978182386393,-11.277531951830445,-33.46242521568603,right,right_2
1908,0.46385450595393773,-0.14809125110059976,-0.018580781829357147,-10.65950740742372,-15.194339789867401,-29.08876139199256,right,right_2
2008,0.3051088090438396,-0.048536067371070385,-0.23826748884916304,4.665414500316923,-15.42951686336928,-30.440223602306304,right,right_2
2108,0.35985768651515243,0.5309472436264157,-1.0555717139720917,-1.0739757434416315,-13.124260570371922,-37.874980136513564,right,right_2
2208,0.14978349677016958,0.060171852368116376,0.37464521354138847,12.22464781705308,-20.235056963377247,-10.109932457557923,right,right_2
2308,-0.4586293186515569,0.2699792626693845,-0.20112696797847746,3.844189693668202,-15.492620981111028,-28.069854262177568,right,right_2
2408,-0.04578965473975986,0.220335526317358,0.879296278655529,-6.13399054923429,-13.449018989933103,-17.208695764792974,right,right_2
10,-0.5874469102878123,-0.0217743171736598,1.1483107879459857,-15.409794692140867,-12.547260703441232,-14.479946398913672,right,right_3
110,-0.5885897601800039,0.3004401596456766,-0.041461891201138495,-7.541735225856231,-20.34830320736335,-26.60294990205956,right,right_3
210,-0.8027019915357232,0.056583472487330436,-0.37280864576399325,-4.94471801095167,-20.813799382319935,-33.597123376307856,right,right_3
310,-1.077422457382828,-0.09335779039412737,-0.15915712725520134,-3.2665881297603154,-29.182280342108374,-54.57567033650309,right,right_3
410,-0.5692329890094697,0.3733835230425,-0.15896891120672224,0.4905489886670759,-26.16646837069719,-58.03572805681566,right,right_3
510,-0.12826788533162325,0.33437720829993484,0.058790627142786975,-2.525702569450223,-20.599903470724524,-57.99467861990388,right,right_3
610,-0.04729972594256978,0.09040303224176167,-0.08137070774137974,5.501313114623771,-22.796845770090172,-51.48240401990395,right,right_3
710,-0.23330588438641278,0.5606283884018659,-0.10466332052350044,5.029586526483663,-16.40484055609042,-46.312449422013714,right,right_3
810,-0.35570020150952036,0.00243862532377243,-0.38777942040264607,2.5127516770102325,-16.077725721265583,-40.406039922150605,right,right_3
910,-0.06530693196794017,0.1563797714963555,0.19168167876303194,9.430401205901585,-14.932569374832077,-32.750326768293434,right,right_3
1010,-0.2466545377159491,0.49420799703299995,-0.09326514367461204,2.932697320392004,-18.883915771954495,-26.649623999752844,right,right_3
1110,-0.10527384450412355,0.029187516039609906,-0.7751116815596818,2.0502358124092988,-23.974064732035014,-33.12919053136487,right,right_3
1210,0.7887523035731167,-0.14360767594575882,0.35893560323417184,4.64315192560409,-28.445871543912403,-37.58456732319379,right,right_3
1310,0.8526387194849551,0.5984013619571924,0.5204612131863832,0.5847087492652553,-9.833496772600935,-42.99186757964739,right,right_3
1410,0.627849720890075,0.19649463200271128,0.3970733184486627,-11.655467662948407,-16.398228932973847,-37.576927756607134,right,right_3
1510,0.2583487931682728,-0.15971943731307983,-0.5711591347664594,-4.576295045800244,-16.150612377446084,-31.90580461327262,right,right_3
1610,0.5552190767042339,-0.081485858553648,-0.1522878260076046,5.543082709606161,-22.668841194854963,-39.80401680342192,right,right_3
1710,0.5156655033424496,0.2146492973744869,-0.32271862694919107,4.116439753324441,-16.733729532552168,-39.37450718765484,right,right_3
1810,0.5991590849893167,0.15291092634201048,0.828196790537238,3.46973780591377,-13.847189136467229,-9.641950947517097,right,right_3
1910,-0.06870132364658639,0.2835390014663339,-0.2969324437856674,-4.077955479332827,-6.148876092756686,-12.989692183344332,right,right_3
2010,-0.1081640586534515,0.04951689510196447,0.2715250308066606,-3.926401692499884,-4.50307456412406,-4.036998676861669,right,right_3
2110,-0.18635264749368652,0.058199090990424154,-0.3460492336541414,-1.9316451588410715,-7.339413923583051,-3.157979370777239,right,right_3
2210,-0.2633380528229289,-0.05553191760778427,0.1643693089455366,-1.1725238472206911,-4.410585265025625,-3.866348534883016,right,right_3
2310,0.15584568288596345,-0.01314297468960285,0.17437047847807408,-1.901708653152317,-4.02379933629062,-4.652881956963596,right,right_3
2410,0.08606829097308218,0.09540449379086494,-0.07202537176907062,-2.112708351096232,-1.1460814101792214,3.1002017333710428,right,right_3
10,-0.5396813523652032,0.10870938104391098,0.1444090554565191,-7.912385686450728,-11.126320955116473,-6.545786496275767,right,right_4
110,-0.8737311918742954,0.11244506044089793,0.42092005798220633,-4.757136683794202,-16.897587478288067,-19.0806166823144,right,right_4
210,-0.373365147135593,0.2744265974670648,-0.2372188565790653,-9.894867729840792,-24.903351242202977,-32.17202489655221,right,right_4
310,-0.6347308587059378,-0.18572569296807048,-0.09414484911859035,-2.4544570796612315,-28.537411446716206,-34.30578965364253,right,right_4
410,-0.5285348852550611,0.11676233911812305,-0.32072014660835263,-0.5544881503957106,-26.175523493989335,-46.20830952773853,right,right_4
510,-0.49473256889637557,0.0940291137844324,-0.09957914912700652,2.0010898265667065,-26.77922854680113,-47.313878097742645,right,right_4
610,-0.38865444967150686,0.18966449372172353,-0.09285773191750049,4.262959690739085,-25.159782156854643,-49.68993698545,right,right_4
710,-0.2154175783332437,0.42428398145735263,0.14816928477287292,2.237812657255124,-19.80622695143258,-47.70511133340097,right,right_4
810,-0.08210943381208927,0.25200404551774264,0.040327334213256835,0.34148339172400044,-13.25021523508248,-45.095371183619974,right,right_4
927,-0.19027303580781443,0.28330665401518346,-0.17680618119239805,1.1219277268399408,-9.573658447327078,-34.45130683390965,right,right_4
1027,-0.27633321653967724,-0.14727116688936948,-0.29364626172184943,2.7722591649961665,-8.391677135983448,-31.70551273095658,right,right_4
1143,0.022638144628494044,0.08131342459619045,0.5524345605522394,-1.4935037847886803,-12.70177324284526,-36.68566661709592,right,right_4
1243,0.21431743507161735,0.1596376042485237,0.24957272671759126,-0.7084605178859263,-15.853109827767838,-24.97092742630379,right,right_4
1343,-0.2980259381107986,0.2561512283250689,-0.45087738935053345,-7.014399371927995,-29.070982409583017,-35.95346350788139,right,right_4
1443,0.32350809682644904,0.4199301701620221,0.24359540587365625,-6.300328707412549,-15.437001043152321,-33.672716494946975,right,right_4
1543,0.8089359905544667,-0.1265036886706948,-0.809960876622796,-3.767358176355198,-15.036903929498607,-40.32803233163989,right,right_4
1643,0.7905057961769402,0.2864025742039084,0.24619126758575438,0.08117403686146445,-6.912971489640128,-31.15513267254237,right,right_4
1743,0.3513323616888374,0.21373218252956866,0.07921206840276718,-5.8590058525891076,-15.199704903460445,-34.09534128003068,right,right_4
1843,0.006036686348356306,-0.09309767815321683,0.30584581808149813,2.2903686150408453,-18.524975670691983,-32.651835440461845,right,right_4
1943,0.22357242587935178,0.20233517472445964,-0.484084662425518,-2.7443749177095893,-11.252324284924867,-41.187300865078754,right,right_4
2043,0.38473946818485855,0.2134197555795312,0.7621914097100496,6.125167225487103,-17.100970021203533,-14.46525807710356,right,right_4
2143,-0.18893332990296183,0.2745888022914529,-0.5819909099042415,-2.7532992001904457,-5.453917578199406,-20.529776210968713,right,right_4
2243,-0.24088611038234084,-0.2269716033309698,0.3890577697753906,-0.9966545869425022,-8.35434502952745,-10.340144837306848,right,right_4
2343,-0.05016640851926058,-0.03147884184718132,0.09277297624349594,-2.736578470215431,-10.65673520439434,-12.55838964292012,right,right_4
2460,0.1109370122318156,-0.06088496907353401,0.08474047643542289,2.4025608754606513,-7.896887133450322,-6.1422576394509445,right,right_4
16,-0.2643970786228776,0.02937427078336477,0.2514770990341902,-9.029612535594406,-6.253675954060424,-8.411120977003181,right,right_5
130,-0.35616712490152563,0.012676233960688113,0.2588128487497568,-8.13586349967802,-7.593309984278997,-12.81161292998282,right,right_5
230,-0.6510523903664202,-0.2695911401346326,-0.08720131359100342,-1.352017376627218,-12.794538310831435,-19.57389123662543,right,right_5
330,-0.6562550005108118,0.11655980228334664,-0.10321779789030551,-1.388735299666443,-17.800574345056894,-29.645548167848244,right,right_5
430,-0.6366529858749359,0.10439882436841726,0.15179332048892974,-2.667052267106579,-22.90712088178732,-36.44004618435309,right,right_5
530,-0.48402701395414766,0.1669169476017356,-0.25305589265823364,-1.4374582406673175,-23.704045156029608,-42.937926160677215,right,right_5
630,-0.47208256486672906,0.21023264997601507,-0.09114625182449818,-0.7886364800147094,-24.289634839615236,-48.51310222164597,right,right_5
730,-0.3179884931547567,0.347734118001163,0.0388169296503067,0.010808227412803049,-21.38820633868696,-50.00404030990596,right,right_5
830,-0.18655226171901448,0.20828823790997267,-0.048105566999316215,1.2876829710612216,-18.349818884521593,-47.35424110064283,right,right_5
930,0.10053056810032576,0.20269173307716845,-0.04003858039975166,4.392571067976539,-14.611362653639302,-41.23564494402411,right,right_5
1030,0.0786844917315524,-0.09263882846981286,0.28611177456378933,3.9798240170931387,-6.98245799227443,-28.723814139355024,right,right_5
1130,0.08420028687780723,0.11780015773326158,-0.0594604892283678,7.219036108329808,-6.237325761847882,-24.68353014150258,right,right_5
1230,-0.33635859137549995,0.34122049832344054,0.014628244811296463,5.802534275418265,-8.66828955208521,-22.998689812895098,right,right_5
1331,-0.3735136522281915,0.2002548613190651,0.052231707018613814,6.912873732557633,-25.91515839037574,-32.653402968876364,right,right_5
1446,0.24814594531748443,0.4077136626675725,-0.16384090115725994,1.6772193315976271,-16.1908780501506,-46.120370842174616,right,right_5
1546,0.2752565089525655,0.034036125114560126,0.1854658729881048,-1.512179976578728,-20.839293063397008,-50.99475583392172,right,right_5
1646,0.5242511800538748,0.38400223995149135,-0.044812955194711686,-3.1592446633209836,-18.88388503610323,-50.85824425807527,right,right_5
1746,0.2812527902252972,0.1503700096875429,0.1608089861154556,-8.370582096731862,-20.48984180243894,-43.93994223267477,right,right_5
1846,0.5249220650527626,-0.1374406777486205,0.013681903871893882,-3.433663948368936,-22.40110802467422,-38.70787047937784,right,right_5
1947,0.38972872783951457,-0.12420680990517138,-0.12897183234989643,2.536941645729479,-20.707620676577502,-41.407495918636215,right,right_5
2064,0.41842663373127575,0.6305360373646021,-0.2774994290411472,1.0090325972658578,-0.401994652262935,-24.14868364080827,right,right_5
2180,-0.1712308287454769,-0.06689443862140178,0.14032441649138927,-0.42518973456046033,-16.912084554801417,-23.906456104535643,right,right_5
2280,0.26303229307569564,0.7176102174445986,-0.13761106587946415,-1.754134838893081,-3.720331470146014,-17.309789394698335,right,right_5
2380,-0.2865704050514847,-0.24449440053999422,-0.09288403540253638,-1.2399333320170742,-13.046580828941368,-13.88200346444043,right,right_5
2480,-0.023792123269475995,0.01722995174229145,-0.06618073739409447,2.7447853693900246,-9.216787039609436,-13.17565518255533,right,right_5
14,-0.6005435981502756,-0.0030327918246388433,0.16986673731803892,-16.623328062355373,-7.4258986326273995,-11.949527797284967,right,right_6
129,-0.6122602298311889,-0.08303133442997931,-0.273941444298625,-6.875793916214103,-10.586753939932036,-22.203708727471682,right,right_6
229,-0.9853507612764835,-0.030396891829371452,-0.016831892335414884,0.2666489310108582,-19.23273865550892,-35.939048393638075,right,right_6
345,-1.0109028434231877,0.30335546257048845,-0.07125672548413277,0.2936897032957916,-31.430823013106178,-50.53655259345142,right,right_6
445,-0.4759775630112737,0.152270290350914,-0.043429976403713225,-0.3361669699092182,-32.93857019691357,-62.716832355429744,right,right_6
547,-0.06673621128580998,0.4107452854484319,-0.11299275745153427,-1.1936824926089213,-25.464301018357784,-65.77668880170376,right,right_6
662,-0.3966276205077767,0.02052870102673769,0.16995032394826412,-1.8790057446814294,-24.1456015179453,-57.21510473370072,right,right_6
762,-0.16432937879394738,0.20661387495696543,-0.10397767634689807,0.9071291630570294,-18.70797180648226,-54.31953482753302,right,right_6
862,0.1414278476886451,-0.09175824624300002,0.42158524389266966,1.973576543929426,-14.95301554611251,-39.99720528900115,right,right_6
963,-0.22318295163773,-0.01233136604577303,-0.3839502175033092,3.1933516398282653,-11.670410409305104,-38.258170824424205,right,right_6
1078,-0.3048839507794007,0.4276625179797411,-0.0400455946624279,-0.31420076137333985,-19.542062555093167,-41.40320314474286,right,right_6
1178,-0.020304061958007512,0.262633868342638,-0.1720727229297161,-0.9875512254393446,-15.916251511550021,-38.87380309507413,right,right_6
1279,0.4003656014597043,0.41806671437770127,-0.18523907849490642,2.8712025659734404,-16.012996018501372,-34.43919349341663,right,right_6
1379,0.38825755930840966,0.3034802579939365,-0.039895372536778446,2.6674725371839463,-14.921830609909524,-33.8248145624794,right,right_6
1495,0.6781858234204351,0.1980401078790426,-0.04659574695825577,-2.128412450101972,-13.005651774113712,-38.74930582197772,right,right_6
1595,0.8032476427197456,0.13638678478151559,0.2927893526315689,-4.313965835913448,-12.891258912120692,-34.09309073269916,right,right_6
1696,0.5161596070023253,0.0374728215649724,0.01598550463914871,-5.1106578837239525,-14.242470966756084,-31.06785310023336,right,right_6
1812,-0.16246906481478363,-0.013307517601549624,-0.2098749225795269,7.698261817291766,-19.399198903318595,-39.4605914768591,right,right_6
1912,0.3004806377865374,0.5435954205363989,-0.30520927374362944,-1.7409676215554717,-9.786903783404046,-40.26902974249473,right,right_6
2012,0.12265895940866321,0.09712941788733005,0.12469137855172156,6.941427765269694,-25.5462035242427,-8.58476146117783,right,right_6
2113,-0.3984251349164173,0.034792496439814566,-0.32028000162541864,5.574655685931368,-6.681415697058826,-12.787533951837586,right,right_6
2213,-0.2891041247801855,-0.03418020976036787,0.22031565257310867,5.331891979808897,-8.143310967194274,-7.251207153094215,right,right_6
2329,-0.17239241987075657,-0.2602636320799589,-0.057415831658244126,5.696683418755993,-5.542273332189514,-5.35427194839809,right,right_6
2429,-0.03620663755405694,0.06856149505078792,0.378113181912899,4.127773171591608,-3.2127440409858123,0.1594716035870015,right,right_6
0,-0.2499847781172022,-0.06721241852939129,0.5963467675149441,-1.3214085241920406,-16.005069583969576,-19.33902835182537,right,right_7
100,-0.5994258461667225,0.23079233066290616,0.026495792737603188,-2.768867549186432,-17.158859289513977,-30.10862133319677,right,right_7
217,-0.5766751582415774,0.23518296683728693,0.19256196872889994,-10.271701219181443,-21.285094387881863,-41.592959460264154,right,right_7
333,-0.6311796690303831,0.23388474372029303,0.17275544449687003,-14.250481071105217,-22.82589797972482,-47.819465775579914,right,right_7
433,-0.42693953746743496,0.3257864900872111,-0.13312486037611962,-20.61388316040825,-28.273378531518315,-58.07610813518877,right,right_7
533,-0.06990101829255,0.38045506886392827,0.02571311792731285,-1.79485205113476,-59.44358030891702,-69.8122377709141,right,right_7
634,-0.23792276706472038,0.296895911167562,-0.0909533596009016,-11.118911053640655,-41.923052257567115,-58.59499760643464,right,right_7
750,-0.05941891510896384,-0.12525894930660725,0.049402621072530746,-14.050782561473323,3.1678839988474032,-34.08939560035819,right,right_7
850,0.293662043812871,0.3118973732054233,-0.9468202473521232,-4.45890671896935,-17.36394937972195,-30.910697277620535,right,right_7
966,-1.0126904574923217,-0.6491650422498584,-0.07251812372207642,-4.778918157057372,0.9681777140237208,-39.56651063541307,right,right_7
1066,0.9217465963721275,0.5309063270941377,0.2252373268842697,18.628068838476864,9.738420539354358,-11.43914020400847,right,right_7
1166,-0.8516584762759506,0.12183657364249229,-0.42526247110068793,8.758718695375238,-5.298532055242085,-5.173992947237012,right,right_7
1267,1.0496784181497991,0.5772945687815547,0.24897359178066253,0.9798098463453698,-58.608132060208575,-30.625475408069974,right,right_7
1382,-0.23201748854368923,-0.5709110052242875,-0.19071429503560064,-7.7109215729183855,-14.109195193028917,-57.28648704071652,right,right_7
1483,1.1336560935191808,0.6768707952991128,-0.4082856173366308,-21.730689099144325,-16.04490324720909,-46.38670040848092,right,right_7
1583,0.5887792183374986,-0.2755710913270712,-0.09869652107357978,-15.674411588512795,-9.624245389641132,-37.008393055379024,right,right_7
1700,0.20509506789185106,0.10237608636915684,-0.2140782194882631,9.391088344586285,-12.20602530628104,-44.143034492550505,right,right_7
1800,0.3661269029777497,-0.029178748211264607,0.3514122219920158,5.798585999191174,-23.516506944441275,-38.79297122134162,right,right_7
1900,0.038787922751531,0.40655981645733114,-0.4809703297972679,4.761061908132843,-28.261630606145893,-46.37961750231162,right,right_7
2000,0.2549664389872923,0.15422230120152233,0.40618309209942816,-7.414823480888224,-13.31109356492845,-18.6009102987896,right,right_7
2100,-0.14541998606473205,0.10423018980324268,-0.22964053027927875,1.1252106999531897,-6.859985443380109,-15.043472863932866,right,right_7
2201,0.2700336232051253,0.32237843520939347,1.05639530531466,-16.962836275429197,-8.376423616019517,5.384372592070336,right,right_7
2316,-0.2285527715751901,0.2442714054390788,-0.32163024719059463,-27.96752778312702,10.67845520595498,-11.566396019755917,right,right_7
2416,-0.09628814475759863,0.42956425994783637,-0.676383596304059,-5.290442123057028,6.150844041011297,-8.97149189462583,right,right_7
10,-0.6351748030811548,-0.030663726072013377,0.6678940003782511,-18.68138358759069,-29.83988412520803,-21.026266076831522,right,right_8
126,-0.933814050784707,-0.13437223008871077,0.16487024420499802,-10.438357834929754,-23.171462863045154,-34.584942900115536,right,right_8
226,-0.8133591407589614,0.1533969562932849,-0.1734451803267002,1.487368674088422,-20.61849695319259,-47.76605369627041,right,right_8
326,-0.3215464413646608,0.2041562526717782,-0.025356559574604032,0.9953326251729874,-17.745816718480903,-56.62367523837473,right,right_8
426,-0.11744670465309172,0.12013590720444917,0.06899053411781787,2.7750450284038854,-15.588402431389408,-53.6408769863168,right,right_8
526,-0.045629568807221944,0.03104483434408903,-0.124615975227952,1.8911303976752598,-16.21632221235619,-48.42764630984536,right,right_8
626,-0.12121036803554743,0.34608109009712934,0.056985623547434805,5.180142678810962,-7.090813393927982,-40.52020653412737,right,right_8
726,-0.33420912172403183,-0.1095183593392372,0.0596738397181034,-4.32270378229601,-13.457870061323794,-38.43062968587244,right,right_8
826,0.08624116332195698,-0.03687719375938177,0.14788812974393367,4.877415034417656,-9.237853904330695,-28.269816587866153,right,right_8
926,-0.3020052535379305,0.2120224560022354,-0.36983810552060603,5.009170664167672,-10.668208214652669,-25.18210150751495,right,right_8
1026,-0.42625418555177746,0.15711100838035344,0.14615326877534388,7.471154612294257,-9.426746200921983,-29.08797592023801,right,right_8
1126,-0.10667341823689638,0.23051292919963598,0.004309095370769501,3.5966205225778043,-24.031781538068913,-35.6420307873909,right,right_8
1226,0.20189988857973365,0.5608718417689204,-0.08737900824546814,3.0678940848232363,-24.22678685396736,-32.98910676658249,right,right_8
1326,0.47683425290584563,0.4123597349077463,0.13962357474565504,0.7880811002578227,-25.182279092433372,-29.12234543214151,right,right_8
1426,0.5249085479840636,-0.32894407733529807,0.31906828774809837,-10.057106066969752,-19.10194053290318,-39.95263830466681,right,right_8
1526,0.7386850080467761,0.10144143586754799,-0.21761399239897727,-2.1072373695710516,-2.6091890388923464,-42.748856279167505,right,right_8
1626,0.5246926402110607,-0.2373833994910121,0.7414923205524683,-3.5276343313002063,-11.332964913360623,-40.88181382426077,right,right_8
1726,0.16775520679047332,0.14939502717554567,-0.7305652683466672,1.8501817060537409,-13.885280247694743,-41.17500652457273,right,right_8
1826,0.2569530827598646,0.004588789094984531,-0.17248071920871733,2.6101482535839104,-3.730558824654462,-36.22683499922198,right,right_8
1926,0.2673709433345124,0.2533496149078011,0.37259587979614733,1.7869900765132523,-14.259718048184013,-25.404140712148312,right,right_8
2026,-0.17304120263569056,0.351495808622241,-0.294161810028553,-1.8553088302428933,-7.409106612552923,-20.224285755056137,right,right_8
2126,-0.06023918198328465,0.025575170761346817,0.35963644497990604,-6.438891047557306,-15.248557831498962,-18.37743333933595,right,right_8
2226,-0.07631596336876974,0.018648878629505632,-0.3715425713509321,-1.3170762632675486,-9.014416218464774,-13.39313865101229,right,right_8
2326,-0.2911159029940143,-0.005659340935945511,-0.05498363607525825,0.005205471261409191,-8.440389191370333,-13.212135222912368,right,right_8
2426,-0.15831322377696633,-0.13834902476519345,-0.04412088127732277,1.6081122246273785,-8.499869893757388,-11.499106703600244,right,right_8
8,0.2848929368259385,-0.10414631091207266,1.2951537925511598,-12.101207515730733,-36.64052248177672,-8.665767504734182,wait,wait_3
108,0.18226778933284804,0.38958413173705336,-0.2127145299196243,-3.19411982266648,-2.31463350239755,-0.9876902838219778,wait,wait_3
208,-0.15109383045006541,0.01227817455381155,0.1781289542287588,-2.2029063351715394,0.1213311735912024,3.4485983704325807,wait,wait_3
308,-0.19651885312851516,0.003262508927285671,-0.22065993596613406,-1.2908965750657126,-4.093696077161945,-0.04607612263557545,wait,wait_3
408,-0.029303301606117747,0.05643091227412223,-0.0259288065046072,0.7542013342621497,1.4781188904049323,-1.6157239368488288,wait,wait_3
508,-0.10788608196228743,0.03247749749571085,0.31801439478099347,0.03284830070929538,-2.328694727464491,-2.3383903944347355,wait,wait_3
608,-0.07223971777264959,0.06760521723926068,-0.030840543943643568,-3.025386402523662,0.7244430538220504,-3.9445221843679277,wait,wait_3
708,-0.026134261382254772,0.007092004087567329,-0.12076163788735866,-1.6435181110157264,-1.9352041142854712,-1.3516167433437145,wait,wait_3
808,-0.08720314022190868,0.03597030804753303,0.07832593321800231,-2.7342002837237973,4.034849728594054,-2.5425722829265083,wait,wait_3
908,-0.09301256628618575,0.09105039023458956,0.14324118072092532,-1.4937800872849483,-0.5630228986504647,-2.0750400712670234,wait,wait_3
1008,-0.016935992030706254,-0.08165507764071225,0.07805413053929805,-0.7034412359804662,-2.127790902887501,-0.1957123205188247,wait,wait_3
1108,-0.03746462912536226,0.022603169213235377,0.09113339234292507,-0.9934462123015945,2.089330748001394,-0.10776488377503646,wait,wait_3
1208,-0.026217578584421426,0.06147942783534526,0.06289338628649711,-2.3476790248191297,0.8716793073258996,0.04500611747319742,wait,wait_3
1308,-0.16800846916548906,-0.0495636568531394,0.07039221760928631,-0.41013407663904816,1.9643542944460277,-1.7948458612758247,wait,wait_3
1408,-0.005688256503175944,0.06692950993478297,0.07139233456254004,-2.2254929169831255,0.009471491357144117,-3.041195515687891,wait,wait_3
1508,0.016526790175307542,0.0046843584239482875,-0.04103577474355698,-0.16262118790823685,0.85826657670414,0.11983614923554974,wait,wait_3
1608,-0.04047468852838501,-0.001765256106853485,0.020463526836037634,0.40366556732992875,-0.9095195158231223,0.9306055904514211,wait,wait_3
1708,-0.04142667375728488,-0.01487666661441326,-0.04696048861742019,1.382221647075778,-1.6638558530430856,0.8562681594025294,wait,wait_3
1808,0.00694963647481054,0.07398439688235521,0.07636720036566257,0.6515886275966978,-1.7084073627300804,1.2462632098303834,wait,wait_3
1908,0.05550673750075511,0.05895780040323734,0.24298516502082346,-0.9962984566103095,-0.8903240695735949,0.8755531985240604,wait,wait_3
2008,-0.09097014633892103,-0.05937719485908746,-0.08823708637952804,-3.227694471305324,-1.1075897723899089,1.2496027454476966,wait,wait_3
2108,-0.12404363696640357,-0.05445785863548517,0.010684475621581077,0.6812312750685829,-2.4935511614796804,1.433187131280238,wait,wait_3
2208,-0.04286459303933661,0.10692542023658752,0.16223697309195995,-0.7161064877749325,-1.2873910871959096,0.009788781658538977,wait,wait_3
2308,-0.1661691614417359,0.036005087099969385,0.14604863935708998,-4.588329839117805,-1.8455644981748123,-0.49566853561511787,wait,wait_3
2408,-0.46791791946794836,-0.09456132096499203,-0.16384440828859806,-0.1791984839106809,-0.32256672925040053,-6.6700489816194555,wait,wait_3
6,-0.2182704470137134,0.3087655049204826,0.9570815291255712,-1.878022410884359,-23.958688268666023,-10.263621105393318,forward,forward_1
106,-0.3352194678103551,-0.19319880532771347,0.18777648801803587,-10.26935590297519,-2.965333458350206,-7.004516941972633,forward,forward_1
223,0.06094647630269173,-0.37993221403360367,0.39004093559384345,-13.94717969082163,-1.7796129386011097,-4.182117571722814,forward,forward_1
323,-0.1344228368979413,-0.4964800336182117,0.04960720373392105,-12.888253628885886,2.787216425504848,-2.6406698076637585,forward,forward_1
423,-0.1002836167350877,-0.7374743170827627,0.4511614669889211,-10.228258654739223,-3.3933715952379733,-3.9425068516759505,forward,forward_1
523,-0.3029738428417593,-0.8550582017168402,0.29867665710449215,-8.517321027086771,6.052559753288929,-7.368188656782669,forward,forward_1
623,-0.3107122550740838,-0.8577668761536479,-0.07677168951332569,3.0351520789328994,5.132608404169082,-3.413709550708744,forward,forward_1
723,0.006077201021835207,-1.2307742593601345,0.2880015338331461,6.993265912862329,1.8091911795235556,6.684549900114216,forward,forward_1
823,-0.34766127196066077,-0.3624634850993752,-1.3648229565829038,12.518546588170498,2.128676052715252,0.5133816707321939,forward,forward_1
923,0.29365312985405323,0.5651920430555939,-0.30544834319651126,20.52474919173958,22.772665192881036,12.577432210326117,forward,forward_1
1023,0.7122638149153441,0.5481061759591103,0.2654968565583229,10.868420696019607,3.407585859231004,10.22862833872805,forward,forward_1
1140,0.7881571141589433,0.6164359080806374,0.7436696645915508,0.7387755121042345,21.285994265305014,11.473466173456016,forward,forward_1
1240,0.02644625450745225,-0.08258855909854174,1.125809033280611,1.1393018070977492,0.3000805458835285,14.79398654411981,forward,forward_1
1356,0.26491405170168725,-0.3499526708334684,0.29229017093777654,-11.02208031555103,-7.002167356898148,-4.196911761465062,forward,forward_1
1456,0.3791918074624613,-0.5128749958410859,0.06221767898201942,-2.6422821591947048,-13.42501770518968,-6.817015442651089,forward,forward_1
1556,-0.14390732561261393,-1.05554687179178,-1.0982529178351164,-2.057266851829592,-41.6798428816013,-6.838778132894042,forward,forward_1
1656,-0.10019457761161028,0.9771776839539408,-0.8908242193639277,10.558658810554835,20.356303066428726,7.028782469659572,forward,forward_1
1756,-1.4777363651879132,0.8178677042245864,0.2929547723263502,-4.350779701766171,-6.623731334423483,-29.888211128680457,forward,forward_1
1856,-0.5472154376644641,0.779781426936388,0.8989964199036359,-17.616669794107008,19.074852002654907,-8.92807921226123,forward,forward_1
1956,-0.8355757218074054,-0.1748448179915547,0.5924637886017561,-7.9038009924376675,2.250471559108097,-16.337433419171564,forward,forward_1
2073,-0.725891650512442,-0.2687581964418292,1.3446616275638341,-4.101125615431626,9.001667670378946,-9.989368519649796,forward,forward_1
2173,-0.20288148349560797,-0.40491526412069795,-0.8589128313183784,1.9424550004196743,-17.431721931761402,0.7617664624590264,forward,forward_1
2273,-0.18984295556116848,-0.5061404268890619,-3.8907542233645915,-1.4561632473179262,2.8520048252072385,-6.973100633111513,forward,forward_1
2373,0.08582176886610686,0.19808160893321036,-1.6761743863433598,20.79192057886109,7.079797152570397,25.27898603334429,forward,forward_1
2473,0.6187919696874916,0.2072454508587718,2.5636662464141846,14.010665445383252,-1.499803567080959,11.733196923250446,forward,forward_1
10,-0.09175145117603242,-0.12760434338897467,0.759700761938095,-6.360919742426556,-3.8549673052916593,5.282989959785722,forward,forward_2
110,-0.5080453106623143,-0.46286096487194295,0.6990425873577595,-5.887571838132216,5.5675945509900435,16.93271684873673,forward,forward_2
210,-0.7041974128376692,-0.9726973236694931,-0.08336860356032848,-4.938687380801372,-4.1196379894033,12.07118798055488,forward,forward_2
310,-0.5236278239911422,-0.6209934252545237,-0.35489655697643757,8.24341678099092,11.156409645957671,13.849781193257249,forward,forward_2
410,0.44057080713063473,0.8171940427467227,-1.3362725694030522,29.094946128286008,0.84597911974814,10.179786509746936,forward,forward_2
510,0.4362438107769936,0.03634615562260151,-0.75335051612854,7.326644031156066,7.371125638125775,10.776774925283668,forward,forward_2
610,0.692365739942342,-0.07270254037827253,0.3555190727889538,1.9100239815799844,3.0028805023216467,10.114626505065013,forward,forward_2
710,0.020694924439117312,-0.28457740460336206,1.4113473918706179,-15.050246704042227,15.561873976653079,7.203057734540209,forward,forward_2
810,0.01009622740484774,-0.1502282631292939,0.9961334365755319,-8.074962971717248,0.11582010472528802,7.094991335265914,forward,forward_2
927,-0.11118567149695008,-0.19287936411499976,0.9763888716638087,-9.100661870888173,-0.27010783485608786,2.3831206629789143,forward,forward_2
1027,0.09803356365282088,-0.9902876331567764,0.8463070322453975,-15.875014244436068,-14.657042958808347,-4.399077676934623,forward,forward_2
1127,0.988929642676562,-1.5400243329271672,-0.6408733069837093,-7.288891868066114,-12.662918857977996,-5.852585901656118,forward,forward_2
1227,0.015931558520294493,-0.8008110632225871,-2.0544863056987523,16.801247660045036,0.9178930075804406,11.204083512590714,forward,forward_2
1344,-1.1082621976088731,1.2701517455026508,0.3461111929744482,30.885650973934098,3.9734147383307277,-26.43676456936398,forward,forward_2
1444,-0.4385855150649324,1.6020169709816574,1.3444365866363048,-3.8262595933232726,-0.52082108075966,-26.233918196298358,forward,forward_2
1544,-0.5796101522475481,0.2265928331464529,0.3284025178045034,-10.276338063854237,2.6394625717279587,-9.13811692074923,forward,forward_2
1644,-0.6296679492931813,-0.44341216803640127,0.19318740715086458,-9.249574508946436,0.08161333675299395,-11.872821357811139,forward,forward_2
1744,-0.573756896174699,-0.6523515633314848,0.27951427599489687,-0.5140182123463274,2.2739003886217097,-0.6823012135298948,forward,forward_2
1860,-0.3849010884873569,-0.8462541330143809,-0.8084475494503974,16.093332703519064,1.0019682606733604,4.201433773582433,forward,forward_2
1960,-0.546254702873528,-0.558422110529244,-1.5775146901488304,22.201159359363974,4.065604789766152,8.936368500592685,forward,forward_2
2060,0.4529967195920646,0.37564942214787006,0.9829565596163272,7.7742895067168245,-5.607003888727371,13.982969882072497,forward,forward_2
2160,0.43366300050355494,0.9213035287797451,1.2078741530269383,7.368570293602543,13.295698318539243,31.73325695936517,forward,forward_2
2260,-0.054117319835815574,0.6931763256728649,-0.05208908367753028,-11.017308574642131,3.6178436278763266,5.020265879587535,forward,forward_2
2360,0.23820052456017582,0.3420972811579704,0.7107026300132274,-7.722124790704498,5.052236714431895,3.7610620226009157,forward,forward_2
2460,0.22703074963968245,0.232323778013885,0.20727906086742875,-13.062020471560182,-3.63553936735536,-1.4634386794444592,forward,forward_2
9,-0.21285390185769645,0.10328618695139884,0.7609738506138324,-14.505918193232645,-10.929532106071004,31.851846118829517,forward,forward_3
109,-0.7796317893326282,-0.39688714822679755,0.08733049292862415,-8.450276743967573,11.569170784106236,28.388593577532674,forward,forward_3
209,-0.9822196236439049,-0.5351908725455403,0.43449557887017726,-5.386224000222232,5.157396014440704,20.354955811614943,forward,forward_3
309,-0.6783041891030966,-0.34532559555470943,0.5922995379507542,-10.664362818149952,13.279885576837017,10.170370240202427,forward,forward_3
409,-0.7184186112180352,-0.8513067402288317,0.399497330725193,-6.9221999289824625,14.961993829776493,7.249677190720131,forward,forward_3
509,-0.4663416465945542,-0.614234014122188,0.5842430727452039,-11.587793294878276,20.827470005943717,7.924405111842657,forward,forward_3
609,-0.5805202893624082,-0.27101065154373644,-0.8913543807178735,-18.49412541375833,-11.838914591223903,10.813558055285126,forward,forward_3
709,-0.20582122674193232,-0.5657976077333092,-1.2404466353297232,-8.420890708837238,4.440893375693911,10.70258541051899,forward,forward_3
809,0.22287264357954262,-0.1912736824840307,2.036170312285423,13.878043662269114,23.921907699985503,24.75639801466286,forward,forward_3
909,0.2030840385966934,0.22905776195526123,0.48876200658679003,-3.2476738418446693,-15.723013507099312,5.824185548200382,forward,forward_3
1009,1.1869159745417535,0.6820011439248919,0.22826690383851528,-10.63498105188785,13.800867647289849,10.511714066615692,forward,forward_3
1109,0.6554518674343824,-0.24201368964016437,1.2325251946806908,-20.269974597961642,-6.504478792835999,7.706596355626474,forward,forward_3
1209,-0.022040333998971616,-0.6525578995585442,0.35751463052034377,-24.26995023442726,-22.291784016818994,4.130261494883608,forward,forward_3
1309,0.14467179804593325,-1.2862002323754131,-0.06579553746879101,-14.820149583735544,-28.998845366663925,-8.72858475453079,forward,forward_3
1409,0.23082922860719263,-1.3557280882403253,-1.0110966124296188,-2.4019079520646804,-44.29623905072848,-11.168404311913859,forward,forward_3
1509,-0.1454823107112199,-0.8116992447227239,-1.6913281163334846,9.023219478531274,18.337673100630017,-34.05898418307871,forward,forward_3
1609,-0.1740811401426792,1.6779842122443018,-0.7759709287375212,38.691949308422544,-47.53272418893902,-25.404668344261694,forward,forward_3
1709,-1.3599983129054307,1.4760431514039636,1.4405185412973165,-16.919162338328842,-43.54381175138153,3.7623089590112664,forward,forward_3
1809,-1.3109049039125442,1.1798095035374163,1.4739298125118017,24.1599961416211,250.68466284255615,1.7028785380403666,forward,forward_3
1909,3.000136924749613,0.2293351175919175,0.4586661435306072,72.4484653942964,-232.179767928024,-7.278985532448656,forward,forward_3
2009,-0.582935131951794,-0.2832368036493659,1.9361732300072907,14.424495508136923,38.424123930688005,-0.850959928478666,forward,forward_3
2125,-0.42408776476550847,-0.7899564917311072,-0.8218862922161817,2.1961030398713834,24.65777349814246,7.804746173999558,forward,forward_3
2226,0.32315036942996084,0.5843839425206184,-2.209818906229734,-11.313648284614182,-2.107048258708407,33.40349775862175,forward,forward_3
2326,0.7827315089136362,1.0330258279040456,0.5566454562455415,40.207762945639715,-3.0239535569018403,19.29335999948737,forward,forward_3
2426,0.2753906567262486,0.8004425221711396,1.497659647667408,-6.174185358726168,4.21736262850055,20.32995390415811,forward,forward_3
8,-0.6124027070418,-0.5033361831232905,-0.13937223033308982,7.010906583941179,65.69793672057351,35.911440769012884,forward,forward_4
109,-0.5207924909673631,0.6609943039923906,-0.6883370689481496,16.458534380703185,80.17053383594025,32.12358177986389,forward,forward_4
209,-0.6503687189511954,-0.06341419529020786,0.9619231239378452,-20.75564032153728,43.21399557673996,29.189923323789618,forward,forward_4
309,-1.3621359094560146,0.1659226758673787,0.22751345512270926,-39.129494641748146,-7.629580850092704,39.94236228506053,forward,forward_4
409,-0.766159436558187,0.05883271271884441,0.2515530868798494,-1.7906350496525119,3.398381112107354,19.759993400940765,forward,forward_4
509,-0.9449936164468526,-0.4858382280945778,0.3159662300795317,9.006443680156078,16.495454968261686,10.302240702507863,forward,forward_4
609,-1.3187109014883636,-1.077111930128932,0.4340490041464567,2.009084349546795,9.891806097545334,14.984661520084472,forward,forward_4
709,-0.7987783152859658,-0.6060349255755544,-1.5016507631301879,-35.049812405215775,-9.027891327923564,14.263276576741589,forward,forward_4
809,0.9241241391584276,0.10532558382451533,-0.7588532051980496,-10.416674545635903,-12.993146551517064,6.202011122517978,forward,forward_4
909,1.3599518434152007,0.8859826245516538,1.1758487832129,11.643660827194395,-0.10978222416910335,8.103041879395171,forward,forward_4
1009,0.9950772055208682,0.08617489315271377,0.7806506109863519,-14.930603987898406,11.34500568309371,16.94418302880589,forward,forward_4
1109,0.32926147272139783,-0.3869312791407108,0.9342290613263845,-51.171070337156436,19.473499408657286,12.840202394301201,forward,forward_4
1209,-0.12862020590063183,-0.7745330048888921,0.6488040999829768,13.20761790655005,-6.647169128560382,5.607759478404303,forward,forward_4
1309,-0.11392243951708078,-1.5394105849429964,-0.07393149765133858,-14.99200738853682,4.2068902409556275,6.019525543368162,forward,forward_4
1409,0.4457897473553195,-1.7143386973038315,-2.461254504209757,-22.26958419446916,23.963892872813574,4.028949725811632,forward,forward_4
1509,0.22609275640351698,0.5597115658178925,-1.7991215515762566,59.1308122864438,-28.179248279471786,-25.7197176499177,forward,forward_4
1609,-1.3674737633526324,0.6777361799567937,2.270206447175145,46.460408394909116,16.263761291236513,-24.724219285935636,forward,forward_4
1709,-0.3823617062028497,1.782384351786971,0.3009142068982124,21.927265358551878,19.839968085932444,3.8252354918345937,forward,forward_4
1809,-0.8408283085733652,1.0551546576038002,1.0416408037751912,-13.181792107524586,-14.809837705636118,-8.010046292524509,forward,forward_4
1909,-0.35916243425998834,0.10328823277801275,0.8666121536493301,-24.724934748251194,6.663729775976724,-12.570838516456115,forward,forward_4
2009,-0.2936555775394663,-0.8526686762318014,0.4395657217413187,-22.367896229835033,16.089992741014928,0.9717966470667697,forward,forward_4
2109,-0.5111117855608462,-1.4607763164281844,-1.0605068322867155,-11.80984957498456,7.864269565068926,13.746477143381744,forward,forward_4
2209,0.6316527664348482,-0.7142939325034618,-3.155017689859867,-8.787937390870907,14.713764264770719,24.30919650139815,forward,forward_4
2309,0.7711353983398527,1.2578639263376592,-0.5431394934624433,53.800232129842364,1.2330957790493624,19.729926908214367,forward,forward_4
2409,0.08416486850455403,1.6882020932674406,1.9113029926449059,34.85211599478434,24.012259149873724,14.273363058598404,forward,forward_4
9,-1.2943620576515793,-0.24883506009280681,1.2673194446861744,-10.720206444803976,38.52358856047631,34.94810405828511,forward,forward_5
109,-0.9046960197847336,-0.911301482464373,0.5087374576449394,-22.50275489990235,37.35073238186382,30.50237832375342,forward,forward_5
209,-0.7273431644950061,-1.1753972400531172,-0.024524200403690338,-12.810413378009837,32.79218899771644,18.460008618854115,forward,forward_5
309,0.24365793144954367,-1.4447431732550262,-0.8737941741079092,24.324521738348366,41.72471039425911,27.139317827391494,forward,forward_5
409,-0.09497676076493225,0.4310226420626044,-2.340679328805208,-18.62585585718578,-4.118093085990408,38.12050494660801,forward,forward_5
509,0.9777571643423288,1.5788687351062893,0.7410089209496975,18.61110094103126,12.0082050986709,17.22609908679817,forward,forward_5
609,0.08842230675332248,1.430527016375959,2.203705976307392,-10.917084940082303,-11.758267132598977,8.17344576181237,forward,forward_5
709,0.3195520161444321,0.3601253975406289,1.1804466323971747,-35.13944497769385,4.43987994637581,-2.123644978061303,forward,forward_5
809,0.21696495390571652,-0.7541726461663841,0.38418402625918385,-52.90880023560191,-18.704804306254665,1.1758778969899906,forward,forward_5
909,0.11483564537186175,-1.3012901033490896,0.3807715874671936,-15.867166357079725,-2.286932816444917,-11.629716142230167,forward,forward_5
1009,-0.16554233478028327,-1.3994474029794335,-0.8878758909523486,-15.880184697637768,11.994755602421499,-14.018702870489065,forward,forward_5
1109,-0.4578715590868145,-1.6456936156228184,-2.8463112216502426,7.2149687306790655,31.199436694593654,-22.615524738193844,forward,forward_5
1209,-0.23698119363198056,1.217925299181044,0.0339110374301672,35.0751114259015,-45.34007637101402,-32.75719452350388,forward,forward_5
1309,-1.121715334226191,0.7516635859549046,1.2891244492590426,41.67557742846463,46.556406703693646,-36.21523050782212,forward,forward_5
1409,-0.40649632276706393,1.1343775396615265,0.10890578039884567,-11.783835091983274,-2.1652619610044255,-6.207562785652729,forward,forward_5
1509,-0.49696248337291177,0.7923173756435513,0.6228226865082979,-3.401622250311937,-29.345265731177804,-7.914712219636763,forward,forward_5
1609,0.20958868951667098,-0.09753449155688285,0.7346154205203056,-7.150034122239754,1.2182156783339608,-8.747752826662783,forward,forward_5
1709,-0.33257147405222054,-0.7077990175262093,-0.054524201869964595,-6.41664597520422,-1.3027501549268583,4.828267554471184,forward,forward_5
1809,-1.0712668573625386,-1.4363085223868488,-1.4282774838835,6.438704071128776,17.93919644935689,4.054472862079501,forward,forward_5
1909,0.9773616622187197,0.20818536205738783,-2.6239637709885835,11.12847161093138,2.221688074728605,25.393331937786765,forward,forward_5
2009,0.9875969327680766,2.1131138512343166,1.3936702808827162,58.46626220095824,-15.822819646346124,14.255175118612307,forward,forward_5
2126,-0.02781600849069655,1.3093418923795221,1.2238602421879767,22.553578337516413,12.716755262789682,8.935116868427281,forward,forward_5
2226,0.019220212244056165,0.04554945277571678,0.11536883893311023,15.960837278904572,1.943300449772875,5.099000031471211,forward,forward_5
2326,0.09875278130546211,-0.30756606600284575,0.9905255335658788,-4.684932619643881,-6.342092325979415,2.150289972900346,forward,forward_5
2426,0.2456568684481084,-0.5412140783578158,0.28940087923705576,-8.149482896883026,-17.44325641372226,2.4576832768270047,forward,forward_5
8,-0.7981045076776295,0.18620763126611709,0.7219090836822987,-17.19128390505132,25.456786102723477,23.661231822764673,forward,forward_6
108,-1.0468735167969017,-0.6211988846987485,0.4683955103844404,0.3831675293004858,26.2223837143375,9.353028822983681,forward,forward_6
208,-0.5440968672525137,-0.6419394749104976,0.3425596379727125,-11.128816535484466,10.71602636903193,11.10401184973992,forward,forward_6
308,-0.4932992116250097,-0.8646984289824962,0.32216157758831976,3.4340280828290624,24.811819877135633,22.523662108951758,forward,forward_6
408,-1.4741925551012158,-0.8640051860213279,-0.46862756557464597,10.523859850507266,3.5534471102775655,28.373736208540606,forward,forward_6
508,0.4455909003149718,-0.28602584984600543,-1.3554086470276117,-13.706626404669304,-2.062922675349186,14.368276221078549,forward,forward_6
608,0.905773293627426,1.1521101802289486,0.5505155751883983,17.036627931674722,0.9716497979996144,5.3616536753435815,forward,forward_6
708,1.0505949484728276,1.171270223250985,1.3427730373382567,-13.682817218996286,4.545665062467321,11.831586652018125,forward,forward_6
808,0.0005532773680519312,0.13556640830934047,0.9090461047530174,-39.201665835613085,38.50852457826185,5.030803153929572,forward,forward_6
908,-0.0026820969571359453,-0.030100539231300353,0.6146417181402445,-25.51142078589441,5.174778845878386,-0.02105149679562555,forward,forward_6
1025,-0.33885040819123385,-0.7945251148208975,0.4057417780727148,-18.046771928784587,-26.2541799524712,-5.768270631446896,forward,forward_6
1125,-0.40459582290798424,-1.878499039673805,-0.7402092950046062,-15.86034982828805,-8.905764984242797,-12.458555329142984,forward,forward_6
1225,-0.30031689859218896,-1.8880431130886077,-2.0190993504971266,7.461484771976812,5.682457415375326,-9.998084694804378,forward,forward_6
1325,1.2661527389943599,1.3666647850573062,-1.4810861140072344,5.237772826819768,-48.966155499482085,-24.938115197531047,forward,forward_6
1425,-1.2959823523297904,1.1857006074026226,2.118772023126483,55.063400484755356,37.588897663127575,-34.5650431439687,forward,forward_6
1525,0.2522681763466447,0.9467091881930828,-0.5919260284632444,-8.137059636556419,18.193684175189684,-7.132340517194836,forward,forward_6
1625,-0.8380384586591273,1.1872896301597355,0.9002677550137043,-5.88211238255126,-20.486143255003377,-13.466686981768634,forward,forward_6
1725,0.14568095682216808,0.16272563339173793,1.0661129817306996,-15.557627306536624,12.597585537245886,-7.196664677477077,forward,forward_6
1825,0.1349758950702846,-0.7834045858696103,-0.11068448050916194,-13.93600294001855,5.473385324881235,13.53831688314185,forward,forward_6
1925,-0.9012371845677495,-1.501172916485369,0.16522387994825838,-5.116627895945367,19.528282648442666,18.719120382755012,forward,forward_6
2025,-0.12505721618942917,-0.8828168539971113,-3.231339297518134,-31.142804181090494,31.543070341926168,31.594474345619684,forward,forward_6
2125,0.6579336012475192,0.8585273391321301,-1.2011749476492404,42.914689857120834,-16.779242498086546,17.828608856505213,forward,forward_6
2225,0.977199895785749,1.7841136597976088,2.088445273923874,49.42051334344968,1.0455226694632394,19.07486224793866,forward,forward_6
2325,0.11329994197087362,0.6706693103104829,0.9736030403375625,-25.99197582042358,2.7363210574610863,25.528069371996313,forward,forward_6
2441,-0.07921964892102405,0.2295984447032213,0.8775397903770208,0.5690073716630124,-0.8320764297751376,6.489186426171163,forward,forward_6
8,-0.5435178983207791,-1.5261545052677392,0.8484954822003841,-4.522418940514005,38.63518360623057,31.016486662580277,forward,forward_7
108,-1.0368800191141665,-0.11495295160859823,-1.5376847840636967,-7.089991636793465,32.88841270274358,31.7872086236191,forward,forward_7
208,-1.4174968544110655,0.5040498843505978,0.07049918511509895,7.600913692372513,23.66850768177803,11.767247977583898,forward,forward_7
325,-1.2028395198605955,0.34575726497024295,1.116014199975133,-25.994774490435994,-4.0546611191684985,1.8167376847827734,forward,forward_7
425,-0.48411841856464743,-0.7743748917177319,0.9303069194465875,-26.33107080705262,4.721482242553089,2.2499644175622233,forward,forward_7
525,-0.41268103928398336,-1.0156997223109006,-0.8220090418130159,-21.0878146189898,-11.140983663717197,3.7566381944528633,forward,forward_7
625,0.4159949130723253,-0.19028963988274336,-1.833358752220869,-31.821984531778224,56.02749876157558,21.29290129410319,forward,forward_7
725,0.172034911669977,0.002543693133443594,-0.44417584588527675,1.0248040376679461,-12.92293049930204,-10.56813740557552,forward,forward_7
825,0.8410499154347926,0.2818611313819885,1.6779127544432877,3.316237415167373,74.49624489992543,61.63097571137028,forward,forward_7
925,0.31730288551077246,0.2832553622193634,1.097160446423292,-60.61757371402632,16.58055400267817,3.0976239772895977,forward,forward_7
1025,0.5611969820700585,0.0730338181592524,0.27916297833919523,50.31724204939148,-35.17990018814783,2.872804885664043,forward,forward_7
1125,-0.19305260179005562,-1.0569117304041982,0.8880161762058735,22.83138945181751,-24.705996341230044,-3.4064006079665954,forward,forward_7
1225,0.4383527657549828,-0.8893471325486898,-0.34623803422451016,1.2471216792316895,-23.956574325117902,-6.144939342473821,forward,forward_7
1325,0.7932510032318532,-1.2159975459888577,-3.1154560793220996,-20.326265602006302,40.58730631253357,2.334085454266923,forward,forward_7
1425,-0.5791404889091849,1.1865528403177856,0.20487141520380972,49.03773246688924,-90.63586579544967,-32.606503474940475,forward,forward_7
1525,-0.7202980682890862,1.2173887080863117,0.8134323521256447,65.17132230537635,59.35558015165058,-36.91816967153774,forward,forward_7
1625,-1.1691121684342622,1.0823436933025716,0.48140755217075343,18.0236961346737,-10.174561415031876,-4.661141790104257,forward,forward_7
1725,-0.793421464427933,0.3775976336061954,0.6786392662763595,11.380573893196551,-7.159916552195116,-7.1838034312699435,forward,forward_7
1825,-0.2633629132695496,-0.30399492951780555,0.6794324624806642,-25.638733804476153,-7.939389693108019,3.7384566577691123,forward,forward_7
1925,-0.0019058336213231086,-0.5899328088194131,0.23474106828868388,-16.24109701602312,2.643586725326177,7.191514714842888,forward,forward_7
2025,-0.541156649082154,-1.7545199010446666,-0.8699544498145579,-2.926821863601912,26.95699105013988,7.636554473235286,forward,forward_7
2125,0.8647283126641064,0.14779928241670132,-2.4599212097793814,-5.886495656451116,-19.240378222095583,28.68051074001714,forward,forward_7
2225,1.2475997219547628,2.024059603253007,0.45595337744057174,44.407605285145536,9.811711030469533,16.28909787796268,forward,forward_7
2325,0.11742391743254847,0.8033309370890259,1.4845979215204714,-8.610533472463581,-8.363144020725718,13.211612713440863,forward,forward_7
2425,0.33036037387400863,0.262486568826437,0.4839636663943529,10.60394040343108,9.814128917435717,2.5160922798446035,forward,forward_7
7,-0.6141710318885744,-0.49907326498180626,1.1711889747083186,-15.112403133036635,37.06516900285475,1.3778349580813374,forward,forward_8
107,-0.42906580890640617,-0.759643186531961,-0.01129997717142105,-15.006649606570035,20.8550793381162,5.171316366856013,forward,forward_8
207,-0.35466917796134945,-1.2458745055973528,0.6925415349006653,-10.384561557479442,16.069505588599476,8.69348953502797,forward,forward_8
324,-0.8917849541548639,-1.170323297789693,-0.32208442069888116,-1.0079969698329545,14.736665889057772,13.583723980744095,forward,forward_8
424,-0.11191234180368483,-0.30327772115916013,-0.9755261173546314,11.269935927699745,-5.814572910717236,5.370057369343636,forward,forward_8
524,0.8137494552507996,0.332469036591053,-0.5575239926457405,-1.0773358763481604,1.469137405089777,0.7906446623523989,forward,forward_8
624,0.8238942710377275,1.3241267890572548,0.7492465879410505,16.558333689760826,6.0903174659075825,12.223780383028489,forward,forward_8
724,0.7051716646973043,0.7244482467710971,0.9920756856173276,-7.625550184708749,4.8995371633656815,13.479822289316214,forward,forward_8
840,0.4047393230319023,-0.09518646712601184,1.2657879973351955,0.42596917653863514,11.647282535001795,0.6509524595085346,forward,forward_8
940,0.7396396784231066,-0.8881070693597197,0.593773117634654,4.226839089087119,13.10779554560396,6.568504986115698,forward,forward_8
1041,-0.14683219095021485,-0.7936155987605452,-0.5932634145468473,-3.1171523419003107,-0.4232348330343822,2.4485543021144593,forward,forward_8
1157,-0.26263953089844433,-1.3630474713429808,-2.3095576298326255,-14.911406033688792,40.4553982841877,-10.932110502482683,forward,forward_8
1257,-1.3149813595712183,0.9243106016412377,0.2264624847650528,20.908412870250245,-60.44245449389637,-44.322470392235914,forward,forward_8
1357,-0.2645520317225717,1.0075912346571683,0.442030650550127,17.937760402083892,28.72209976187335,-6.027574494418199,forward,forward_8
1457,-0.4604907286092639,1.5763082369685173,-0.025706688186526296,-8.841019913552953,-34.6221913367542,6.07796720322773,forward,forward_8
1557,-0.4168883182480931,0.3004693857401609,1.5281740283966063,-6.921980082268552,-7.303740699321721,1.8776277540163793,forward,forward_8
1657,0.268301684845984,-0.4611699430450797,0.15946867742240428,-15.642304576771856,11.83131685954591,7.050612181133756,forward,forward_8
1757,-0.4420413180746138,-0.8710901758462191,0.48395314500033854,-5.54163086752071,16.344746844225355,8.22259409553249,forward,forward_8
1857,-1.0724513909719884,-1.1194763231277465,-0.020401567515730856,1.8788068154218527,15.152279484958463,5.0675811612891515,forward,forward_8
1957,0.17752163598537443,-0.08404401860386132,-1.8144670047461986,-12.381608979274558,4.947579006440259,7.592109578532367,forward,forward_8
2057,1.4829434323117137,1.468240660959482,-0.8990729922711849,26.766864196856112,-14.778963543040367,11.470160361897731,forward,forward_8
2157,0.9525830486625433,0.7078656530216336,1.533254692661762,4.622895718959947,9.408055388258243,15.199108969455361,forward,forward_8
2257,0.571528077676706,0.10832651920616626,0.4240589405298233,-2.4930316402159365,3.02523998034333,10.587686260753744,forward,forward_8
2357,0.28121600187886503,-0.2655240368261933,1.3937380854219197,-11.945186358293778,0.5567416859349917,12.870016170028306,forward,forward_8
2457,-0.06854103678464889,-0.6653644819006324,-0.38222646245062347,-6.33743456385229,-16.18827062543495,-3.6113353113709508,forward,forward_8
7,-0.4572250048115849,-0.8046575095176697,-0.32454934950768943,9.166181314275166,73.6592666888429,55.887606242089966,wait,wait_4
108,0.010420710118860005,0.14361819733977316,-0.753538732177019,18.787770614102808,49.08757235726282,30.418001581841665,wait,wait_4
208,2.3597499399781228,0.7770674918025732,0.10358137050569056,1.722233266435773,71.2265718725378,61.82616202728174,wait,wait_4
308,1.4899091796711086,1.1327695199429988,0.29582769741415976,-31.488449319133576,47.325175230629846,79.2101750876906,wait,wait_4
408,1.8832281140223144,1.2300637730032205,-0.8409545653015374,-59.01784778776096,61.16744492334737,72.81013757122692,wait,wait_4
508,0.3365976242957637,1.1644646348893641,-1.2367740842968225,-4.754085723669322,66.9525400182673,85.48763802930924,wait,wait_4
608,0.5766352280899882,1.5645190149754284,-0.7447352479964494,8.502902497748874,97.77451996875854,92.11727918491208,wait,wait_4
708,0.2630747439779341,1.4178127884924412,-0.58300096372962,-7.119304674277044,71.40170475304609,84.49268437291349,wait,wait_4
808,-0.43825493140369653,0.7677636568844318,-0.0921165581613779,-12.94566905282266,43.66993460950041,82.41860180879074,wait,wait_4
908,-1.3243456925049424,0.43123833063989875,0.3489508003145456,-13.479845341204664,9.093759964731873,66.90679824139572,wait,wait_4
1008,-1.1832630780573934,0.3022980624720454,0.3396393666118383,-3.264830423266095,0.3494472055332502,43.146328892632646,wait,wait_4
1108,-0.5668959243640304,-0.19375205529630182,-0.9746785606145858,-30.117029296065056,6.76321703076666,24.49818442063782,wait,wait_4
1224,-1.281849051428586,-1.048605382090807,0.07466448810100555,16.80131937703132,7.108382348020547,19.484024730168276,wait,wait_4
1324,-0.42223135977648196,-0.2596148127824068,0.053747372278571126,9.333585835737594,3.5690389380488234,28.802863333714164,wait,wait_4
1424,-0.6405503586396575,0.0464198058694601,0.4590957671195268,3.998724858073856,-0.6897921167804005,14.44359271705628,wait,wait_4
1524,-0.5338730679452419,-0.08016367003917693,0.4621434642523527,2.870328728646502,-2.480268577978121,-2.9264342503665137,wait,wait_4
1624,-0.4624508862337097,-0.05767243676781654,-0.023574352332949636,-4.359441235407393,8.768625030992697,1.109948215365973,wait,wait_4
1724,-0.022852358201332388,0.31712679829150436,-0.276388252928853,6.0481483048587465,-10.022976465460843,-1.7419335597144996,wait,wait_4
1824,-0.3086165249038488,0.022259470342099665,0.03135375416278839,-0.6846975960723644,3.3470439162016574,-10.792334096212958,wait,wait_4
1924,0.0395976864981465,0.09661182375401257,0.015488661032915114,9.486167139153801,3.457455204795383,-8.06606579654966,wait,wait_4
2024,0.022796700757648794,0.0810626647055149,-0.1315560036242008,4.198187726179385,0.13887835645578828,-12.397425989845015,wait,wait_4
2124,0.2252325045786798,-0.0010854571491479873,0.05675882905423641,5.8649997704726164,0.9207641416310789,-3.1319697969744187,wait,wait_4
2224,0.05857278314102441,0.07466916427612304,0.12218845582008361,5.312826787401276,4.355156145476856,3.770802299244177,wait,wait_4
2324,-0.08994405469419434,0.17405249857008456,0.18666180477440356,3.5394176882789474,3.246744082343901,1.7131562651939434,wait,wait_4
2424,-0.04243817975423299,0.07481178761720657,0.06180091487467289,-0.7819299279408445,4.555333622124297,0.8820642897937867,wait,wait_4
1,-0.18322547365017233,0.021332710886001586,0.4950502930760383,-12.775891040623653,-8.69647603524256,-6.562741587116677,backward,backward_1
101,-0.47789296817854043,0.07966565738916397,0.20601649358570576,-1.6663296621830996,11.958848444181095,-12.595274371985482,backward,backward_1
201,-0.4583132019070908,-0.7313888596892356,-0.7951186967998742,-17.372522974677608,15.151777466054465,15.370867736513672,backward,backward_1
317,0.5375271700059995,0.5865244616806506,-0.17105039414465426,-15.912578577323847,-29.119056696056152,-11.697185604625199,backward,backward_1
417,-0.29695598905803633,0.17823942886590957,0.45718613410592074,-9.037222220103448,2.794991315214438,-11.521741950509666,backward,backward_1
517,-0.5122488998319953,0.2722849092632532,-0.2310112341105938,2.249011392729595,-10.443415590010149,0.6462838117674193,backward,backward_1
617,-0.6178092422604561,0.6388035149723291,-0.17820728016197682,-12.1298908951502,4.647716199516951,-10.140764785245006,backward,backward_1
717,-0.7901049602910876,0.6559978108793497,0.13241466628015042,-5.584658497970851,12.8437558002169,-11.499520783818676,backward,backward_1
817,-0.24607905764924362,0.771185448026657,-0.25644787318408485,-2.821474733390928,4.233040473966668,-2.505542412341284,backward,backward_1
917,-0.16816338573256506,0.26787293803989887,0.013812836775183676,-10.659491185724441,9.099456342499664,13.585973674301968,backward,backward_1
1034,0.2298004883476533,-0.3454647117644548,0.0776946495771408,-10.96600360869158,-7.123921882155972,4.56799252397727,backward,backward_1
1134,0.4558781202472746,-0.9465338316261768,-0.6076099198073148,-16.86714703270461,19.01537130026785,-8.473690632442375,backward,backward_1
1234,0.9145495975401252,-0.4899415717601776,-0.5438403352081775,17.42190353482951,0.8041477862589556,-15.444116392720183,backward,backward_1
1334,0.13342442784458397,0.1341489427268505,1.2480389901548623,19.223225909542386,0.9232618564331879,-6.446499451405876,backward,backward_1
1451,0.18833076089993117,0.4317530021637678,-0.28483868588805195,7.191384941248658,-3.047402023209317,-16.18689946495907,backward,backward_1
1567,1.0149700197968632,0.892394245159626,0.03839139771461487,8.397546829801428,-6.569434318729644,-4.70010246979048,backward,backward_1
1667,0.36991073236539956,0.8237935871422291,0.04157879557907581,-5.494619529237158,-4.752014895690338,-1.8526853972713737,backward,backward_1
1767,-0.12975114615932107,0.5683376476049423,0.5994084931731224,-1.3340633706201934,-10.116756670312412,-6.399398893776292,backward,backward_1
1867,-0.6540306024596094,0.224335994130373,0.5645329946249723,-24.814741490553107,-23.30288765550725,-2.559968561299119,backward,backward_1
1967,-0.539112941360101,-0.7585603597313165,-0.15675591133236885,-0.6092558088120463,-19.965401094945143,-0.21164049508606633,backward,backward_1
2067,-0.5793958884423598,-0.9757523273259401,-0.782403592133522,4.907236067220755,10.906534005361925,8.008157745219,backward,backward_1
2167,0.09289667568840086,-0.6207879658102989,0.4279109397828579,31.21075090295378,-33.90704320989718,-8.389293399963114,backward,backward_1
2267,-0.7956447665005922,-0.00029927520751953123,-0.24977906294465063,5.9268983598258576,0.6541703857421097,2.6229424785598137,backward,backward_1
2367,-0.3076533058948815,0.1095054998576641,0.32384909228384495,13.40108984497983,-12.824019968610148,14.456751076492308,backward,backward_1
2467,-0.3629190468471497,0.3545814996778965,0.5825397759586572,-6.58012996808306,-19.3126911423858,13.8565567409139,backward,backward_1
0,0.1109103251542896,0.06768705030381679,0.1183762040555477,-5.440887284810314,33.55619005261197,3.9795555052813922,backward,backward_2
100,-0.6901829890757799,-0.2736275560438633,0.43106209729015826,8.682828463507228,47.925275651107164,1.9276618778944845,backward,backward_2
200,-0.5137864846628158,0.6363491075575352,-0.4405933112233877,8.47099953790939,58.9223344224075,-18.302709362268722,backward,backward_2
300,0.2266719627972692,-0.2170721406072378,0.6755652656584977,-51.25583639985088,-7.9945212725410695,2.053288693524883,backward,backward_2
400,0.07483138736682013,-0.06574380728155374,-1.0381810187101363,-34.02532501084888,-44.73552608229244,-8.050769587903417,backward,backward_2
500,0.769952983622253,0.446310812087357,-0.2288672078192234,25.605086585077377,-4.584843027546515,-23.81142426751867,backward,backward_2
600,1.134771361284703,0.564035566496849,0.7334218268215655,-8.181948493555389,-4.856074962129598,-15.501594142133131,backward,backward_2
700,0.7112178860589862,0.45457010638862844,-0.10755495031177997,-33.64305298338161,-23.68927145685487,7.783695530977578,backward,backward_2
800,-1.3758458703786134,-0.6913163770198821,0.07460954304337501,-5.001400470213136,-24.214142466266377,-5.878599103996935,backward,backward_2
900,-1.47908003488183,-0.8540876031190157,0.19559154568314552,-11.885481967211403,-7.662879729843808,-11.188520072793194,backward,backward_2
1000,-0.6485775246854871,-0.038753509025275704,-0.2643471020013094,-7.341454442597593,6.195575376772533,-23.05975853426418,backward,backward_2
1100,-0.034289369223266836,-0.07743570638000964,-0.18206687819957731,12.943695128152527,7.298803326325448,-9.261615278679523,backward,backward_2
1200,-0.8694760917130857,0.4648708433896303,0.12351648955345153,7.806625329794958,15.692024938834965,0.3811210872312736,backward,backward_2
1300,-0.9094289665907621,0.6459770598635077,0.1815326251924038,8.032611529994938,9.451271702684206,2.661846809185383,backward,backward_2
1400,-0.6942253232691437,0.715884416565299,0.38706162752211093,9.21564042160252,9.94830286103874,7.467500461088301,backward,backward_2
1500,-0.03862605585386045,0.8793681748479604,0.20887363658249378,-9.657616840152167,7.10801394469219,10.575963948590708,backward,backward_2
1600,0.5811056515023112,0.22955811269283294,0.10433189661204814,7.941265433808834,10.89002202304342,12.328108961279495,backward,backward_2
1700,-0.024213125160522757,-0.05607581522613764,-0.13138883036375046,-15.454356553833323,11.577592407352862,31.477165846624715,backward,backward_2
1800,0.00816067449869588,-0.4560705740794539,-0.41483693867623805,-2.8977717884013785,22.28323432752543,18.642661537638595,backward,backward_2
1900,0.4649039419416338,-0.46435412603914733,-0.9350228420525789,62.466697167645535,-6.716571107603705,-19.952869405365462,backward,backward_2
2000,-0.1654914996421896,-0.7126695461720228,1.6795014849394558,42.16924984129481,0.64313189290887,-5.481548681599869,backward,backward_2
2100,-0.40762101594805716,-0.361729033344984,0.4364887985140085,-8.546633637683527,-17.84248438580409,-5.5342064518929055,backward,backward_2
2200,0.5863882315477356,0.03185410490036011,-0.5666822816133499,37.44816503037405,-2.770640623606285,-14.544201403530566,backward,backward_2
2300,1.03193569457978,0.5468155516266823,0.09690905313491821,14.61911662589456,-9.439154093322957,-6.346810279148602,backward,backward_2
2400,0.6390594624947756,0.63841013174057,-0.45877135747075076,12.860517084440112,-8.723345145663743,-10.764735863097876,backward,backward_2
2500,0.3392224198414013,0.31300095053315163,0.5339513938784599,1.3226746705094317,-14.783524401858644,1.868228773388207,backward,backward_2
0,-0.5293795559182762,-0.3253396231025457,1.149561664789915,9.930930274884814,50.892091260507264,-4.95584566977009,backward,backward_3
115,-0.40553573410660027,0.3031161008566618,-1.0265993019878863,-8.043520195873095,-1.7005518981326253,-1.5417891667958505,backward,backward_3
216,-0.35943661155886947,0.00954933411180973,-0.9001356530666351,16.020452877527735,43.73580836895059,-10.027713201650247,backward,backward_3
316,-0.3816168061196804,0.06727788498103618,0.4429068488627672,-17.949532233118408,-13.700476673095354,0.0654211793763953,backward,backward_3
416,-0.33384726614169774,0.5279267267614602,-0.21953590037226675,-6.052514076398854,10.82695888643669,10.79630158234709,backward,backward_3
533,0.18375958052687347,0.9818635036826133,-0.047692894545197484,14.801931761671828,26.625718337657798,28.93487722999217,backward,backward_3
633,-0.364971887723729,1.1560475196778774,0.32597441387474535,-2.4885587200832244,11.605053182910897,29.219050665505137,backward,backward_3
733,-0.28544432363100347,0.8625976573109626,0.16137421878278255,-32.84360666178829,19.98180550178422,29.647423054775413,backward,backward_3
833,-0.7455537978377192,-0.13592179761826992,-0.0057183776468038554,-31.762315999188992,12.167255445004756,12.550063642321875,backward,backward_3
933,0.8514576199416071,-1.014259168113768,-0.44144028344154357,-39.84900042929563,11.854065658350283,10.984058359988861,backward,backward_3
1033,0.6273008548356592,-1.6254799718946218,-1.0085533576875925,-25.125629503457287,-1.7794983194891003,-5.580739250047733,backward,backward_3
1133,1.0109484361305832,-0.3093848058626055,-0.15984744760692118,9.501526527049867,15.70843446831592,2.767063312028491,backward,backward_3
1233,0.08775354064628481,0.4712462236404419,0.7248843001008033,15.401214266996039,-10.925242747272236,-9.776592759078266,backward,backward_3
1333,0.7833741907313465,0.8151078841224312,-0.015723054310679434,2.375485365260486,-6.347359255603141,-12.437485903100786,backward,backward_3
1433,0.41967740097735073,0.2802449283570051,0.8818769427984953,-3.46446212511017,-22.166484196495112,-20.924526994049597,backward,backward_3
1533,-0.0631883141124621,0.40922319044768807,0.3190215259969234,-8.0134759012615,-16.54887558530765,-17.01884211907601,backward,backward_3
1633,-0.7232087681040167,-0.3147168145403266,0.5245411759763956,-6.152801317095328,-16.370127827181122,-13.88299213432279,backward,backward_3
1733,-1.0491717838019132,-0.5913610880568623,-0.7082447154670953,-19.027223386025117,-19.921894497479453,-14.497896136052466,backward,backward_3
1833,-0.22279234488494692,-0.5109852365717291,-0.9412912547975778,-0.41043062957898835,-20.313049185962328,-10.548060918283914,backward,backward_3
1933,-0.15717873985432088,-0.11977291911095381,0.4890595282286405,28.878828697663046,-1.1984423874084797,-3.8806932128005123,backward,backward_3
2033,-0.2413840864997357,-0.053308104078471655,0.17743278865814208,7.063992521717811,-1.0647524267411757,6.441747774177664,backward,backward_3
2149,-0.6871737242572009,0.11780337260365485,0.38907705899775025,7.401166517642783,5.201001222762534,-0.6684770707323477,backward,backward_3
2249,-0.7919839789707214,0.4176104950428009,-0.027102526459097862,2.864660738852449,4.169430495339515,-3.658990821870599,backward,backward_3
2349,-0.21447204111143944,0.5797212114065885,0.19141162964999675,-4.6007198022722084,-0.6852371810167954,-7.527926290901758,backward,backward_3
2449,0.3745696640871465,0.3932262876316905,0.5321119034916162,-3.8884612723209324,8.48616938805599,0.08879552745920698,backward,backward_3
0,-0.03656104048229754,-0.10796177754700183,1.3575836529791354,-19.283425489339585,27.781746637702675,7.501806793741983,backward,backward_4
100,-0.35976540512181815,-0.05616378577053546,-0.84290803745687,-27.08618237074338,32.82740886817161,4.841755470534666,backward,backward_4
200,-0.18317109484812244,-0.3625748365193605,-0.007637947532534599,-18.727287581455055,-1.6475861289967035,-11.618539391427088,backward,backward_4
317,0.957708063526079,1.1068909823209048,-1.3498071737587451,-27.156610158822673,-30.02110953445598,-8.503273889284992,backward,backward_4
433,0.7252867434218525,0.8814780066087842,0.334132585889101,9.544919572620604,11.53696985726421,-7.794963635560807,backward,backward_4
533,-0.005341571090510115,0.7653487046971916,0.4376338768959045,-4.373003856664923,-8.185958668371834,-11.505361449332684,backward,backward_4
633,-0.3187005504142493,0.6389093134343624,0.9302472982138394,-13.886477238346787,-9.142875855053436,-8.451340545930801,backward,backward_4
733,-0.9652004651080817,-0.3395861751198768,0.5052110370844602,-12.564953454712503,-15.815683806210753,-9.628908701296957,backward,backward_4
850,-0.9372854532223194,-0.7659072153627872,-1.2573895868241787,-22.917608637257878,-18.08085969538483,-15.701599156504031,backward,backward_4
950,-0.2874156237039715,-0.645379678492248,-1.2163754393905402,4.899881234145121,-20.536749834111294,-20.007954881021615,backward,backward_4
1050,0.19658665766771882,0.03967354647964239,0.37291210613846776,22.50562016425917,0.9035701008909238,-16.083449419790057,backward,backward_4
1167,0.49014922316148873,0.7013923653542995,0.40632220830917354,15.007324087750574,10.027729423349527,5.8464540993287395,backward,backward_4
1267,-0.34556956037841735,0.8642275966003536,0.4260480685204267,7.7538236986425275,5.370608480232291,18.96669424960046,backward,backward_4
1367,-0.19972860895525663,0.8089566680163145,0.022187866410613058,-2.2211909650230752,19.181640302780764,21.451861994204187,backward,backward_4
1483,-0.09057373089985922,0.5855573702141642,0.0076233344852924345,-4.909780739573408,12.873592627832455,22.92593293030883,backward,backward_4
1583,0.10560630959519185,0.1605348453491926,-0.2543044314146042,-9.143688647564668,4.519089650180447,11.153808197657543,backward,backward_4
1683,0.3360230027455836,-0.28214988519549367,0.2841910356342792,-23.8125785694884,36.846131666361615,9.325103594562083,backward,backward_4
1783,0.5347904385184868,-0.9557102407723664,-0.9575766191661357,13.463083203207805,14.13492793072694,-4.2142540386545475,backward,backward_4
1883,0.19051530186478047,-0.43074265607744455,0.17625322348475456,9.889966215337662,-11.140926460882898,7.6606445504379215,backward,backward_4
1983,0.12883439664058385,0.015595628538727759,0.39063247174620624,34.92960790601272,0.6511021367008931,-4.577204741620324,backward,backward_4
2083,-0.10380774487378075,0.25287936704754826,-0.05005144037008285,37.961279576676674,-18.251653698222874,-6.548089123799707,backward,backward_4
2183,0.46443701854962854,0.672248688456416,0.40703415597081183,15.726635214906711,-15.46215833741277,-8.64534609288949,backward,backward_4
2283,0.4218156185824424,0.7222036827147007,0.16385609872639179,19.601297370670103,-13.811419435783872,-4.87110863537962,backward,backward_4
2383,-0.008090312676224858,0.43219022453725336,0.6022527766883373,-12.562902690414207,-27.585887548157974,0.18704742514387016,backward,backward_4
2483,-0.037673349105753005,-0.5696820479512215,0.5286936194807291,-0.46294525938414544,-2.5269209044434238,6.644696173194014,backward,backward_4
0,-0.6207441266685724,0.05620996299982071,0.43173312841951844,-9.80468959600276,12.296087326903182,-18.30750415506607,backward,backward_5
100,-0.2547591894447803,0.01930909610390663,-0.6226888309955596,-23.90530692520779,8.26563111749274,-11.049035657110485,backward,backward_5
200,-0.1947057027593255,0.5079723184913396,-0.8558739020138978,-6.92801754260802,5.191282290460429,-10.25025527896125,backward,backward_5
300,-0.055852820125222205,0.8008154471367597,0.19731120908260344,-10.22233517318153,18.112842056173413,-3.420613804742569,backward,backward_5
400,-0.4738371169164777,0.9813327578067779,-0.10782207681536674,-28.01792433391796,2.9675084467140316,9.822962059579837,backward,backward_5
500,-0.20822014110982418,0.618007102920115,-0.022452070304751395,-10.106301358240415,13.838361970738633,13.540088463457822,backward,backward_5
600,0.08980236293487251,0.6485591853111982,-0.8574953657358885,-13.567876234322373,12.4695186365345,6.8229478888320685,backward,backward_5
700,0.8385586831409484,0.17282354129701852,-0.5588952809989453,17.877699133617384,46.2382223412086,3.546226106220981,backward,backward_5
800,0.5606595141924917,-0.4049047427266836,0.06465864239335059,-25.211041019028297,6.7012403211247875,11.82062078330567,backward,backward_5
900,0.33121644271407275,-0.9029629854470491,0.18453589866161346,19.119251647354574,28.389411492685785,-3.5292930000514615,backward,backward_5
1000,0.3249230781909078,-0.3993716585189104,0.7438806769937276,11.143436555402879,-2.488528197675371,-0.71935989897568,backward,backward_5
1100,-0.08532271503647788,-0.2980266687631607,0.8360983574420213,-7.791472555121285,8.863452816108214,0.5219216483505312,backward,backward_5
1200,0.37114104134533554,0.1518929814711213,-0.26193010398745536,1.4584508270813517,-2.9309938285243207,-6.88696212928072,backward,backward_5
1300,0.6929645095530897,0.790363318966329,0.23158757269382477,6.96973932626622,-12.642407799900448,-12.496742916792524,backward,backward_5
1400,-0.20144348658174274,0.20189970591664314,0.8152958079099655,-9.407064157054943,-12.095194387940182,-6.4355895048672505,backward,backward_5
1500,-1.0841964815624057,-0.04263502663373947,-0.010447159734368324,-19.294611631652774,-18.674225549340516,-7.856716229620538,backward,backward_5
1600,-0.5214037547335029,-0.6758671712145209,-1.6068787317991255,-38.29947980852444,-14.420901121086205,-2.7920223173595984,backward,backward_5
1700,-0.0724323451347649,-0.5524532652527093,-0.02500117026567459,21.51726105550706,-3.3203457739531355,-20.926741682887975,backward,backward_5
1800,0.18608068041820078,-0.1807908669143915,0.4283762192070484,15.548935890817782,-1.19718328472367,0.8281562747175206,backward,backward_5
1900,-0.9044748513147235,0.43565877743065357,0.3046954790025949,10.035177744639425,0.8018387020718152,-3.1346662275926924,backward,backward_5
2000,-0.752012399392575,0.34968232945948835,0.2928840451776981,-6.394933230719573,-3.863942600747879,-8.962540077944881,backward,backward_5
2100,-0.8943545123819261,0.5145031815648079,-0.2047550953477621,9.447760131677173,-6.582292149842193,-8.01580414199483,backward,backward_5
2200,-0.49178164666891094,0.6323392873942851,0.18226327755451202,3.1384100250315057,1.4583062191700178,-13.453631928943802,backward,backward_5
2300,-1.1298038020052015,0.5754524480462074,-0.6191951436609029,11.224393080087747,0.23167902947105404,-20.55912894892684,backward,backward_5
2400,-0.35167854477800425,-0.27478227903693914,0.3141208944737911,1.8288241314059341,-24.311243850601862,-35.860101652116484,backward,backward_5
2500,-0.17015735429506748,-0.7969906281515955,0.46804830438196654,-15.933453342974698,-1.0187711663618266,-36.51051324602012,backward,backward_5
14,-1.4244661089017987,-0.2900222260057926,0.5313321512907743,-9.959675979780458,30.46594609472057,-20.039127864393553,backward,backward_6
115,-1.2451090741828084,-0.32894261603057384,-0.46812370770573614,-18.20850397814132,13.914395636579215,-12.494663977963903,backward,backward_6
215,0.20268033490031956,0.3907435309052467,-0.3325239816486835,-11.556905471904185,17.28803182709726,-7.818472292910345,backward,backward_6
315,0.17267719162888823,0.8952622018113732,-0.9288198957592249,10.359244607547144,14.785464175582927,-9.440703692490903,backward,backward_6
415,-0.24296507208086549,0.43094285482466216,0.7870482030689716,20.58370567710784,27.959596225953344,-6.820872791984853,backward,backward_6
531,-0.8863725737173109,0.9803174432843923,-0.32084172716140746,-10.525737298755374,-17.483264246785613,17.2984768938855,backward,backward_6
631,0.1811472791366279,0.16056465596556663,0.6029501113027333,-4.666374995668956,24.79190987570505,-1.5270490849584342,backward,backward_6
731,0.09787658299282193,0.18690555040240286,-0.12148235337734221,-0.44630950656735957,4.802142934669531,13.926875245966475,backward,backward_6
832,0.8829203143715858,-0.4453817145437002,0.0024526538491249084,-18.10641997080631,20.502725246760875,5.9951016406698425,backward,backward_6
949,1.1564793352238834,-1.313874567373097,-0.6150310097187757,-0.03205431789870785,13.340812571780823,-3.135609860915212,backward,backward_6
1065,-0.20351726064849643,-0.5660819776326418,0.8542892631709575,6.038242396128113,5.39777470388237,-2.3951394480406094,backward,backward_6
1182,-0.05665526364848483,0.1160585747629404,0.6404483595699072,7.533359706386502,3.759410397482242,-5.082572145856861,backward,backward_6
1282,0.5227326652497053,0.7421160054087639,-0.3858651112139225,-5.921388958486595,5.247084082205787,-9.280325728137127,backward,backward_6
1382,0.4611695777188986,0.8802239148944616,0.3511655537545681,6.795883691132715,-8.836642616068621,-16.563205322186334,backward,backward_6
1482,-0.045324402715032915,0.5204162050008774,0.5530529847115278,-2.011925281354697,-9.295294087703208,-14.437991961936868,backward,backward_6
1582,-0.20654935835339128,0.2014963858127594,-0.3593132043749094,-32.748390409663735,-10.244127745502102,-12.39496285287558,backward,backward_6
1682,-0.4870226155735552,-0.6802239051192999,-0.2874053215056658,5.021100870213568,-17.472057613904912,-24.252176374659594,backward,backward_6
1798,-0.05908423979450017,-0.9787035783469676,-1.060151442977786,-10.905379703392192,8.058361343165886,7.729215380836618,backward,backward_6
1898,-1.1042715936027467,-0.266371301305294,-0.4128226762443781,21.40633024564959,-42.12916687615059,-1.6984492670853193,backward,backward_6
1998,0.48393323472347105,0.023311317482590674,0.6345423503965139,25.981614423452672,10.930176705173924,-1.5159198253144273,backward,backward_6
2098,-0.8107219241231679,0.5196563265442848,0.5888473516702651,-0.9148645657354805,0.36608349195856493,12.911793875860337,backward,backward_6
2198,-0.8698010128185153,0.2840413980305195,0.7544272054493427,5.508130924075913,16.82634860524483,-2.594258245366699,backward,backward_6
2298,-0.3392605964273214,0.3746913907706737,0.08469137659668922,-27.56316350878934,15.033000476387944,7.382037719098516,backward,backward_6
2398,-0.4699491695672273,0.033575521865487096,-0.042076223707199094,19.361067664729706,3.381634982366364,-7.121168462146811,backward,backward_6
2498,0.6400362716376781,-0.06320376740992069,0.16908230894207954,-2.8733754199031507,8.695343077613982,7.466294932699793,backward,backward_6
16,-0.5487391401004046,-0.07529577174186707,1.5024112261086702,-17.468367604205813,38.71369663073986,-13.555110610763618,backward,backward_7
129,-0.8549979959622025,0.13773381547629832,-0.6953495780587196,-15.45817462957936,22.566487395047737,-23.258870501401102,backward,backward_7
229,0.05736527051478624,0.13661270249187946,-0.0030476971328258513,-29.853080050684497,-23.376645160806923,2.042549715158919,backward,backward_7
329,-0.07868417207114398,0.4408095843225717,-1.702903403314948,-38.431818138788024,-15.349292876472894,-2.1229470181054926,backward,backward_7
429,-0.49507729068081824,0.04444587544798851,-0.2578150698840618,21.87069602429854,3.5927315836191283,-8.68990453948736,backward,backward_7
529,0.04526698257252574,0.27793782045841214,0.41640521090626714,10.630900013858767,7.481570650778527,-0.4960595639451011,backward,backward_7
629,-0.4481041983101517,0.8173907343626022,0.07341419577896595,-5.071687812527622,5.133173602322899,10.624003230344346,backward,backward_7
729,-0.7742628827106207,0.5530681822806597,0.4707996489167213,-5.155665415259752,-0.666328389268997,6.493250815614145,backward,backward_7
829,-0.36822603068146853,0.7883949415028095,0.2230985612899065,-22.473188718532658,-4.358973367449247,7.201607173115228,backward,backward_7
929,0.46199156162627036,0.8298165006935596,0.012905074280500412,-22.617365474175163,-0.6386005426422425,6.301439040039499,backward,backward_7
1029,0.27447672021910546,-0.4631429966837167,0.6216928056955338,-8.558723926288096,20.084429094063662,9.601967873889489,backward,backward_7
1129,0.9999790791530162,-0.7097118654102087,-1.2577742022275924,-40.285142158746794,17.747804303529374,16.169154633495374,backward,backward_7
1229,0.30524788872096686,-1.439004629603028,-1.3221931906461715,-11.981593827890885,38.76290814370981,-2.418085041670444,backward,backward_7
1329,-0.18143360353102905,-0.6612295740529894,0.06309037016332149,25.33823963194144,10.926477303964715,-1.3978166764982096,backward,backward_7
1429,-0.24380616254750637,0.11344313156753778,0.6836322522580623,16.112667261512076,-1.160809752629002,3.3670232867410026,backward,backward_7
1529,0.23206476175151763,0.46769116150736806,-0.34680268236994743,33.107777888316875,-4.628639054278282,-18.910775490865568,backward,backward_7
1629,0.8764380396801977,0.7480582549393177,0.8374830897986888,22.20312133120306,-6.632236627487441,-4.464005028297941,backward,backward_7
1729,0.712764238718152,0.8636503812342882,0.3393962055057287,-8.859230051653855,-10.700929089645262,4.320169782113935,backward,backward_7
1829,-0.177542971034348,0.5317758034050464,0.783002142548561,-12.665586900622532,-9.588865863514112,3.3712413554403087,backward,backward_7
1929,-0.35030331090204414,0.2936065142333507,0.22307401137053964,-27.37200358939361,-12.012456037655587,6.530488580082231,backward,backward_7
2029,-0.6847566531781106,-0.9205760912880301,0.5930863044142722,-14.958182584219625,-3.61017844808028,10.704955486160985,backward,backward_7
2129,-0.20457509913835673,-0.3837561562359333,-2.530484692302346,-20.19794342297469,-24.93991153728276,17.80051628844895,backward,backward_7
2229,-0.48720330590270455,-0.9879434081181884,0.0016939444363117217,58.60850772061293,8.324237555666034,-13.957842469889666,backward,backward_7
2329,-0.16138897796049714,-0.04084872773885727,0.0352963543087244,31.374627631709895,-1.8280802811166375,20.22420720788068,backward,backward_7
2429,-0.19503014894071966,0.420344303920865,0.4111421758115291,32.30744022703688,-1.1138482533820504,13.814720978473927,backward,backward_7
16,0.7763461917906999,-1.6926894678145645,0.6216670867323875,-7.019153610477147,20.083264546810174,-25.77819772959135,backward,backward_8
