time_ms,acc_x,acc_y,acc_z,gyro_x,gyro_y,gyro_z,label,segment_id
13,-0.10896937455381266,-0.03853197522908449,0.18795535171627997,-2.843703157157911,-4.518193614738706,0.22559559875682053,wait,wait_1
129,-0.06632809170922264,-0.04490983969792724,-0.009972527959942816,2.8924613163216937,-8.201146447765003,1.546413311585655,wait,wait_1
229,-0.15857879764428362,0.014557225401699542,-0.22691841183900832,-0.9518180235793651,-0.7005264527521632,3.862285852987328,wait,wait_1
329,-0.16859861707836388,-0.02929156093597412,0.07011515423357487,-3.6716100232490207,-1.9329123723755204,1.913402363898202,wait,wait_1
429,-0.17092830213494598,0.004310264414548874,0.08834288484156132,1.5624790904522887,-3.481404195902975,1.4047981970470205,wait,wait_1
529,-0.10085741630136034,0.011021014099568127,-0.10406944628357886,0.39565143423640303,-4.523293204727768,1.8755874484452495,wait,wait_1
629,-0.1483692095254548,-0.13858911713138222,0.16809271338284015,-3.477185913760257,1.2645262818973513,-3.8982954640652814,wait,wait_1
729,-0.012684430966875515,0.1115327679015696,-0.18746026167571544,1.189358129090657,0.5804315567409463,-0.27906010510428536,wait,wait_1
829,0.01162775923750596,0.027104718416184184,0.05591594848930835,0.7701819492075697,-0.04987158672020013,1.0762035590498193,wait,wait_1
929,-0.1405843917349819,-0.10556742975637316,-0.05875497130751609,2.0572384638558545,-0.7057250271233363,-1.6846125844873427,wait,wait_1
1029,-0.0627628278425429,0.028371377351135013,-0.07549509370625018,2.4076961104994434,1.9327113086818282,-1.1271894271000835,wait,wait_1
1130,-0.036139853644871614,0.08430734571516513,0.18128712599873542,0.9949982660687741,1.4805789324449004,-0.11021203916903154,wait,wait_1
1230,-0.1556593847999349,0.023483166918158528,-0.16546937914192675,1.4163630946940273,1.5000330187483892,0.31856562577894826,wait,wait_1
1346,-0.0865936665540561,0.04276274466663599,0.043052375262975694,-0.6351432929834525,2.2633338725322885,0.6660318096486303,wait,wait_1
1446,-0.07235350317831617,0.0927463804975152,0.021308745488524437,3.408715615208407,3.835936690716711,0.7060418838678013,wait,wait_1
1546,-0.1461291937800124,0.05376081628203392,-0.07086100416481494,0.13615509866872336,1.0118048002952367,-0.08804770178636992,wait,wait_1
1646,-0.18671572691872715,-0.07761077068597078,0.05062427182197571,-2.456194722474765,-0.5370207953670494,-1.7205591230371793,wait,wait_1
1746,-0.08374369308357127,0.0010240823507308959,-0.03880465469062328,2.8179736211110615,-1.919257757007607,0.05637515410966876,wait,wait_1
1846,-0.05805213853409513,0.037071985679119825,-0.15184943459033964,1.1570436503536803,-1.5967253387856153,0.01154770211216271,wait,wait_1
1946,-0.10259000311447307,0.0527595302850008,-0.022248656687140465,-0.19932825201389853,-0.8153105565185778,1.0618962337293467,wait,wait_1
2046,-0.048853974213823675,-0.010079933857172726,-0.07575403690338134,1.8535818595999378,-3.0623151009318055,0.7797224428176082,wait,wait_1
2146,-0.09042528060618787,0.01393646315485239,-0.02032733323574066,0.02921119829583715,0.2864813991221951,-0.5929324571085093,wait,wait_1
2246,-0.08088710720920934,0.06339096054509281,0.09062719638645649,0.2685411602152162,-0.6718552929680066,-0.7303677093185076,wait,wait_1
2362,-0.10502537703523411,0.06536094544380903,-0.09042261372506619,0.37607992737612816,1.0700861641527208,2.5340196054251827,wait,wait_1
2463,-0.09479118419811129,0.05501359282210469,0.10631693294942378,-1.972900141758183,-0.7536044397617141,0.850603904868179,wait,wait_1
11,-0.007438666667346842,-0.03780278417170047,0.02410042203366756,-3.397472910391154,2.4982791464892102,15.79132222898861,left,left_1
111,-0.21467125347796825,-0.06112257722169161,0.04122165270447731,-1.9141681988588897,5.543588997378388,21.82325182277634,left,left_1
211,-0.2862025581197813,-0.14366137889437378,-0.46974400238394737,0.0863337245110934,2.6375178888052093,25.607816953198093,left,left_1
311,-0.059280054627545174,-0.07374525436423718,-0.018427052572369575,-1.4764872222452396,7.196483677464072,28.73113951723986,left,left_1
427,-0.23022821224043144,-0.17591580822393296,-0.06107084703445434,-3.0289176103245588,7.201079541001844,33.36662839748202,left,left_1
527,-0.16559958139285444,-0.20672186537608503,-0.1553980669826269,0.2697871894910675,6.3995384857674535,38.92864268392017,left,left_1
627,-0.12697099565519018,0.04478175633884966,-0.1423012695223093,8.8090990244669,-2.062631111648991,50.778798912744264,left,left_1
728,0.07654273959565908,0.5116109672546386,-0.19889818601310252,7.506696355414065,6.554573961529812,55.13450958420436,left,left_1
844,0.3262300326036289,0.3133898037202656,0.2180927158266306,0.7411014583208884,8.318844267542662,48.96639114100845,left,left_1
944,0.07256247432045639,0.4295693745143711,-0.16213117462992668,0.4605813202402334,12.792607074843612,41.85130112033613,left,left_1
1061,0.15011095689255743,0.1406276372216642,-0.2062228298127651,-0.23992968454501787,4.995977300012147,37.272441338502546,left,left_1
1177,0.28622827708292753,0.17491101509556173,0.19369594119489192,2.0093938424935613,7.055032594187224,33.938475740457584,left,left_1
1278,0.3388079572889954,0.09417802073583006,0.3358019804060459,-2.225156103279679,5.333479998790925,32.77416412849677,left,left_1
1394,0.17767280795909463,0.05479264354780316,-0.010147300004959106,-6.6675504130437,-5.133746484439534,27.65517810974046,left,left_1
1494,-0.22232417938392607,0.14700506329908966,-0.4739069672822952,-12.94905170400911,-4.548150824438383,22.830703017805927,left,left_1
1594,-0.2652999822793528,0.08556962073594332,0.3765957630872726,-7.64772354007555,-6.639340877997901,29.475975061324338,left,left_1
1711,-0.4139563199168071,-0.1438885387137532,0.09693009592294692,-1.469902172833407,-2.1663712264143182,23.913320444651504,left,left_1
1827,-0.2298347742097452,-0.1502997209303081,0.2235685168892145,-1.6957127091056712,1.9696528136946652,25.703682073293805,left,left_1
1927,-0.4871702804159373,-0.06929952700175344,0.15309680430293082,2.732634462856572,1.7415887418831197,29.608808580302746,left,left_1
2027,-0.5278287462797016,-0.049638767915964124,0.05273731845319271,-0.26388331804681125,6.213302705876478,23.201175893482002,left,left_1
2127,-0.4383872525464743,0.24980120171122253,-0.21643384270370006,3.614376453098899,8.760298176620804,23.82909908954337,left,left_1
2227,-0.21353556397892534,0.18958843281082807,-0.020052607947587966,1.4114489870296147,-0.336341406537318,25.415154392184956,left,left_1
2327,-0.4137594821704551,0.008983443857356905,0.06609481267631054,4.091408390676814,3.093022564223125,17.20453276449385,left,left_1
2428,0.1000934553246945,0.07803783699162303,-0.11569149501621723,-5.734531204494326,1.6878381413228813,5.20688671139297,left,left_1
12,-0.14681978812636806,0.15680544956251977,0.016055062744021416,-1.9338566460282747,2.613085234927016,18.76230596132971,left,left_2
112,-0.3164155812822282,0.034082813800498844,-0.14122691828906536,-0.864911550353769,3.4860250323199002,18.406874869753292,left,left_2
229,-0.3971339625947177,0.012003814591839908,0.3149778035640716,7.984231592556445,3.602416364975383,16.872377250061547,left,left_2
329,0.017153863431932405,0.27781967397145924,-0.4008978451728821,2.689293497478256,10.611115517154179,27.33786971901647,left,left_2
429,-0.09734382782299071,-0.03185527394413948,0.39011926152706144,-3.848546500585024,8.937570613886608,37.668243970715615,left,left_2
529,-0.3188661893047392,-0.295757773983106,0.1823895342826843,-2.414011474160766,8.895280643866828,40.791686063067864,left,left_2
629,-0.42387430467791853,-0.025577654979377983,-0.22147826661169528,6.86589910654087,9.94433537490461,44.97941847717525,left,left_2
729,-0.128741567257978,0.19706505230180918,-0.5353484011948109,8.010014702899598,-3.504295788349684,47.19529576846747,left,left_2
829,0.15769553027004002,0.41487054868489504,0.4124333846658468,-8.164144751710104,18.37842713186019,48.65623566589276,left,left_2
929,0.32963067135997115,0.18915595967769622,-0.08786533045768738,-8.170385837064204,14.534147365072307,45.78794895036468,left,left_2
1029,0.3838522004889324,0.006826411953940987,-0.2950987986177206,-4.40759364216916,6.405199005042102,43.854373622752846,left,left_2
1129,0.3208629160799086,0.03453779102638364,-0.2078746886730194,-1.2372678506934767,5.26478238300576,36.17544124081221,left,left_2
1229,0.3429221146095544,-0.10141600916534661,0.5426712914288043,-3.8154585029245434,4.62227331797183,33.122828210153,left,left_2
1345,0.439594947835803,0.03975552567467093,0.36009529466331003,0.7385786105570677,-0.9461869594955127,30.43024128083433,left,left_2
1446,0.0956645147002302,0.22326222741901874,-0.052706923314929,-8.047586719750191,0.8675403194105777,29.0987061474241,left,left_2
1546,0.10084577152933925,0.24949717726334927,-0.36664369339346886,1.0737962375325072,-5.500666807973558,32.29790186786096,left,left_2
1662,-0.05239791216468438,0.3672302611097693,-0.434371075707674,1.6832698119852005,-1.3768742492858927,29.468557475885703,left,left_2
1762,-0.4359725560875609,0.3932131358891725,-0.3174795572519302,0.9634038386807049,0.6529952196788973,25.803281599318222,left,left_2
1879,-0.47840749357193707,0.11434081105962395,0.11904665066301821,2.509724409104036,3.9862439680261272,21.40557892484089,left,left_2
1995,-0.40178891226109115,0.2510693950161338,-0.05958323882520199,-4.416450689975374,-3.4683884166658694,23.86910009241755,left,left_2
2095,-0.24648502636794,-0.17918708497956395,0.41657121512293815,-4.020138354895493,-0.7082790909860979,32.895417061737426,left,left_2
2196,-0.3270307910598814,-0.18770619926080107,-0.027667174604535102,-1.330631627449085,3.645302269000247,25.691551657327864,left,left_2
2312,-0.3175645686542615,0.0619616583943367,-0.37935645997226236,-2.2604912331770937,8.366211629436702,21.659964197836135,left,left_2
2412,-0.38051936627179384,-0.12430223310366272,-0.21075228993594644,-4.287314010885235,-1.5301365439066916,21.36433653508506,left,left_2
14,0.22377887170426547,-0.040016514698415995,-0.013922726890444754,-0.4014346567922733,0.4170962538786861,18.10623555569872,left,left_3
114,0.06063840130078606,0.15510134905837475,0.010254852032661438,-0.7148670218839868,0.5628272244029144,18.93314606794465,left,left_3
214,-0.005267711269855499,0.07591748383678495,0.10384382083415984,2.3115140269375583,2.3553290501329553,21.583857107461977,left,left_3
314,0.0707732710824348,0.11802008409425616,-0.3069605013251304,0.47700813863752567,0.4111819237072633,25.015535391773142,left,left_3
414,0.018756028798408805,-0.32611484525874257,0.6550619913339615,5.005526331358647,4.003503429171927,27.980349755746428,left,left_3
514,-0.09666244882955215,-0.09461926169730722,-0.1828296792656183,4.794286936463547,8.342740538127599,38.066672810664556,left,left_3
614,-0.4513915128851309,-0.17652846022956073,0.13155015840530396,3.39953456030344,4.858110785389085,39.64534126371877,left,left_3
714,-0.09852887288909405,0.13886727648563682,-0.0912666633337736,-2.447594447092661,9.473908657140921,42.272744282693424,left,left_3
814,0.15866561741121113,0.05236307831332087,0.07467734758257866,-0.08875670743872897,3.861795360027556,57.16232786198403,left,left_3
914,0.1356189604804851,0.24327757209613918,-0.1341758307337761,0.5762832306763684,9.541174921408144,63.22961563755762,left,left_3
1014,0.33603432785719634,0.1727215422272682,-0.11694587899148463,-2.5408440316230836,8.70188298374427,59.98308329107799,left,left_3
1114,0.2932846618678421,0.11081555954292416,-0.0017915595918893813,0.9692960507786046,7.3172636201047005,47.754643865261905,left,left_3
1214,0.32128749816752966,0.24468290884941815,-0.3756517602354288,-7.667248489591677,10.331017997028418,35.580173179172675,left,left_3
1314,0.42064405405241995,0.1475691269226372,0.4136883531630039,7.325939667897909,1.4603144015077072,38.73139023578478,left,left_3
1414,0.4279440748674795,0.09568163023181259,0.3697942663788795,3.455308177518472,-1.141317139789726,37.43685423710851,left,left_3
1514,0.3834417199919,0.18782770674861968,-0.14537059396505356,6.189734711258526,1.2470102617708536,32.25888782732184,left,left_3
1614,0.15836060658264905,0.44436954182647165,-0.169937464466691,5.179882277848855,-4.085904538866253,34.169349794782356,left,left_3
1714,-0.16848589568519964,0.37915034294091166,-0.27127602448165417,1.4256493772008942,-5.569181289311603,31.156051332985733,left,left_3
1814,-0.32222547313738614,-0.11888649166524409,0.3462485556185245,0.6693914623074831,-2.0639708959433714,31.46207454365357,left,left_3
1914,-0.5581370830427855,-0.037644013413414355,-0.1484568695425987,0.28512304525100884,3.5528992010400833,26.313208154825745,left,left_3
2014,-0.5461871905952692,-0.04274696257561445,-0.15641805768013,-2.4756285316541553,4.063876325019315,31.701691240115956,left,left_3
2114,-0.4955367979513481,-0.2183203140374273,0.1611842491686344,-2.921985235895897,-0.43737543236999776,35.21260654898844,left,left_3
2214,-0.3103828039240092,0.013771847177669405,0.05148059639036655,2.435049310578052,6.868573552487753,31.746070394248115,left,left_3
2314,-0.6522375815629958,0.024408245873823762,-0.10236322688758373,-2.1065957586758937,2.6882019478715233,27.411686988471384,left,left_3
2414,-0.3042202627062797,0.07630348747968674,0.36032033559083937,-1.1979887134372027,-3.522306783747596,19.84512317120851,left,left_3
14,0.5023847641499712,-0.0359234732311219,0.13275368897616863,-1.821885726426259,1.3729423014797868,39.047440164154196,left,left_4
114,0.26296850712448355,0.20146701358780264,-0.42253918361663817,7.03832424393008,2.3480849941879223,38.171062006844444,left,left_4
214,0.05273804910555482,-0.024943229533359406,-0.04930266782939434,4.532394004909986,1.8750820144466687,37.25938201680948,left,left_4
314,0.17531367761231959,0.09207439952008425,-0.34990474003851413,-5.143643855433706,1.5806425911677624,34.20410521237397,left,left_4
414,0.10788140578716993,0.15786803729273377,-0.25164777942597866,-3.653066486539259,-4.5530745370563155,40.303771499708,left,left_4
514,-0.40020876693017776,0.15864881240688264,0.26046061595678327,-4.482565213593804,-4.274854892065486,34.55016699195642,left,left_4
630,-0.7348852504376322,-0.0076695847798138855,-0.35918460955917836,-0.17379587097826696,5.790287746236432,37.68113253767943,left,left_4
730,-0.4314780942125246,-0.12554054272696374,0.5340057544142007,-3.40960652800827,4.710189805420942,40.66029029890974,left,left_4
830,-0.42270263055004176,-0.024017785251513123,0.4476987593144178,-4.2008092381602005,6.62341543817437,42.46690948532397,left,left_4
930,-0.19427500145817175,0.10210713323466479,-0.10624912841022013,-3.614447743198361,7.398240635357079,46.5263743619131,left,left_4
1030,-0.49484965593740343,-0.007066138993948697,0.08426818274855613,-1.6921288875038245,9.552820393943016,46.249420436352835,left,left_4
1130,-0.45679318926557894,0.2653143395982683,-0.0007698153287172317,1.5079383223824443,11.472836942278729,52.196367108939974,left,left_4
1230,0.20174431442553176,0.5540600428622215,0.004563362392783165,-10.827867301596303,18.216054752268768,53.56624350925607,left,left_4
1330,0.25769334320053455,0.02946304504536092,-0.7069499994814396,3.23542240346437,-5.785253896818133,46.828292628889756,left,left_4
1430,0.3299291793825105,0.21190599001571536,-0.1801946545869112,-1.1308162575493603,11.194454653408288,46.267674116909696,left,left_4
1530,0.31392387406434863,0.15357837727479637,-0.3552934473395347,-5.0027639467262,4.23644148128651,37.17529897303204,left,left_4
1630,0.07828589346855878,-0.0816708597317338,-0.11240180582106113,0.25176333412760876,3.2351741687767226,25.83610578092201,left,left_4
1730,-0.00920172625053674,0.04058898082412779,0.3792325413316488,4.1806345668992755,-1.613790139540069,19.648982336360547,left,left_4
1830,-0.005714870515465736,0.40308826788924634,-0.17226970680654047,-2.199902759484026,-0.44047623153147775,15.09258363161255,left,left_4
1930,0.12973904472957365,0.18499606351926923,-0.008428805649280547,8.232741195318189,-9.824593621017824,17.680754043994654,left,left_4
2030,0.00438053033889737,0.13640285913348196,0.17296645689904688,6.506953882636482,-12.623191916444263,16.29933974662311,left,left_4
2130,-0.6056009911376983,0.22182839522361755,-0.1983019736856222,-0.48124520380046076,5.729114864482505,17.857857434078497,left,left_4
2230,-0.7910787737593055,-0.11465557609722017,-0.04392857357561588,-7.233700524477825,3.058694460341464,22.3123053201803,left,left_4
2330,-0.405705464650318,-0.2919827124238014,0.13788111499249933,-4.207580943835445,-1.2505892808959402,19.836317349821073,left,left_4
2430,-0.3385051749501377,0.027321210711076856,-0.6381447588026523,2.891735395278968,3.0414606124050523,17.81053788350865,left,left_4
11,-0.347238516503945,-0.03864120775721967,-0.07305997551381588,-3.1568728801316968,8.8740020432813,27.651981581208894,left,left_5
127,-0.3592079904347658,-0.23704065046794712,-0.0032820904105901718,-6.58641203457218,7.626619963087503,28.77603093555977,left,left_5
227,-0.34102442776206876,-0.19296075878813862,0.205779177698493,1.4545283775070603,7.602086777362463,32.768672656404085,left,left_5
327,-0.05255951420087367,0.1325110393267125,-0.4054489326059818,5.625592675440384,7.4406424497245185,39.94349951155734,left,left_5
427,-0.2366328733846545,0.14870828702040015,-0.3661906889289617,3.6553584418926217,3.606490572815296,50.23632821338892,left,left_5
527,0.37366014802679415,0.04810512860789895,0.5222966119199991,6.235888860801241,4.919177372324054,53.017868111363256,left,left_5
627,0.0930612733992748,0.16072013878822325,0.21579379123449324,2.8575091039046225,6.583000781968582,48.892051362082036,left,left_5
727,0.2381672798776999,0.2982172228991985,-0.22750994799137114,-0.5997923149127292,8.794860641368361,43.757364445971156,left,left_5
827,0.43827451288700103,0.2772152052722871,-0.4819131636053324,-1.2816523409109235,2.866694641121232,35.792633043495094,left,left_5
927,0.3476583128185943,0.2708165902763605,-0.09918459685146808,0.49910689553198456,5.36904052493095,28.900354038832344,left,left_5
1027,0.1247372087211348,0.02343962003737688,0.1618073495030403,-0.382004262707468,3.1823787274832283,24.720684663040156,left,left_5
1127,0.2334220946446061,0.03490618594735861,0.3918073607444763,-0.19773691131877813,-4.187205635767651,22.155327082485897,left,left_5
1228,0.030721520673856136,0.24928163481652735,-0.15844693315923214,8.627754940682122,-4.879313400120097,18.96339868332593,left,left_5
1344,0.14964676431375554,0.3055236003898084,-0.35213527556955815,-1.1554269232327972,-1.8522474113908467,21.236712742896078,left,left_5
1444,-0.22861615566760302,0.09823694073781371,0.14179332000017164,-2.5112949257263155,-1.860318560555686,26.700201550556788,left,left_5
1544,-0.5654422549569978,-0.01547770124748349,0.017207155388593673,-1.0265560879117601,3.788509991554258,24.793953809814173,left,left_5
1644,-0.5376174055727199,-0.05265592378005385,-0.008403671208024025,3.09262171749621,4.574274163579566,28.480936027563956,left,left_5
1744,-0.3590694587469101,-0.10654752683490513,0.05194529129266739,-0.09571573638804638,4.550119199579815,28.251911246956965,left,left_5
1844,-0.17669161490201948,0.09265022664666175,0.1893476828575134,1.1434953298047255,3.141911137311372,32.0888912490694,left,left_5
1944,-0.20008513077534734,0.1823110622189939,0.01753974834382534,0.4799836465164182,5.671344270708891,35.44909843390555,left,left_5
2044,-0.26656549043683336,0.07408741886541247,0.03817337104976177,-7.30582732211316,11.123221756780579,31.31944311831078,left,left_5
2144,-0.352912945411168,-0.13021350297406314,0.09880991832017898,-9.974590551606827,10.8086215360625,32.77745286458214,left,left_5
2244,-0.32563140912335364,-0.1535936479091644,-0.3362888871401548,-3.0521707759104553,12.314006328190711,23.764753584919973,left,left_5
2344,0.29175887707266956,0.1547816155847162,-0.3020435031890869,-8.860917108378848,8.165910355610553,20.25331405902869,left,left_5
2444,0.25459769700644536,0.16369455148912965,0.1949988404870033,-2.1057426253598766,1.0865575922230297,19.821726358206632,left,left_5
10,-0.07529390857834369,-0.053526934460923076,0.23016367737054824,-4.371858519318476,-1.5855880750136748,6.158161734933319,left,left_6
127,-0.034705731471814216,-0.010519932709634304,0.08500935650467872,-3.5899337673803617,-1.0693620573789937,10.468087940839528,left,left_6
243,0.05327741667926311,-0.1719208203036338,0.5608183580160141,-1.753398992731718,1.170205851771118,21.71585734336164,left,left_6
343,-0.023757093055290168,-0.1109190929826349,-0.178007373675704,2.2003616628188865,9.060946028411841,30.545288987214022,left,left_6
444,-0.07847956201029009,-0.20919731557890772,0.1667044738948345,-5.149145999696975,6.320724079161031,35.53627213828242,left,left_6
559,-0.3305403335507959,-0.06434687303043901,0.09139642719328403,1.849625472523208,8.67283077410962,36.875163385428756,left,left_6
660,-0.034262508615804835,0.14687617622241378,-0.37301556651294226,3.8451685451536295,9.478079341402859,47.953716558811095,left,left_6
760,0.19236535017825662,0.1814240502513945,-0.02447568508684635,-2.9142978579850474,8.739318396811464,49.25926282242943,left,left_6
877,0.5044377511570229,0.5077016117911786,-0.32834406561553475,-7.830039218269762,3.893483168908184,49.728688063706066,left,left_6
977,0.5015889010645449,0.0018042729429900645,0.4403747000366449,0.2445445979072722,5.293662130363867,45.76879368483738,left,left_6
1093,0.33528847792595623,0.2696933584000915,-0.23778818089962003,8.806376340309003,6.610844048120138,43.05489998040285,left,left_6
1193,0.21574443566743284,0.30370179179012774,-0.40823534845411774,4.492136443055108,7.214487202342579,37.98475493685401,left,left_6
1293,0.4035520494760945,0.16071999265775083,0.18092881408035755,-1.5322001148096815,-6.2150794088343275,37.18196865275656,left,left_6
1394,0.3878296892851591,0.32325244156494737,-0.7487205182403326,4.331677370204937,-10.05350058086163,38.03900712943142,left,left_6
1509,-0.01651993117625825,-0.11742650211527943,0.6929799263179302,1.9560592431424588,-10.215706474592032,25.007050589276695,left,left_6
1610,-0.16694920590352266,0.3496021038301289,-0.15083938076496123,3.6637476217406895,0.7247791204735562,27.547238922739457,left,left_6
1710,-0.5091353709213435,0.3139738872185349,-0.5150666606664658,0.1248042847635142,2.4181153506348863,23.44704050548766,left,left_6
1810,-0.3754828334093094,-0.12342413509488105,0.4213502660930156,-2.4209639664056044,-1.1065326938941435,21.524521546594784,left,left_6
1910,-0.1864446183597669,-0.08546952136233449,-0.36440789716541766,5.860753954129807,-1.2936077332793847,26.603315317180158,left,left_6
2010,-0.3281668824177235,-0.2693995630852878,0.12520692685842513,-1.0469684284114606,6.096076169151549,26.26437913244932,left,left_6
2110,-0.5976386704890058,-0.023247312335669994,0.2678057180225849,0.027315874162011502,3.4297171662457266,25.82816397846458,left,left_6
2210,-0.3875204772055149,0.1592170407488942,0.345675139644742,-0.2556004596981279,1.9848079362458657,26.576351437884238,left,left_6
2310,-0.4530643414681777,0.19512597399801015,-0.08882043922543525,3.8594282725933238,9.413890077356726,26.970205758636563,left,left_6
2426,-0.3138577865581959,0.013541764748841523,-0.11002923147082329,-7.957021826450407,7.0028029913777825,25.70045139381639,left,left_6
7,0.2573154863314703,-0.11558949594646692,-0.3087362788259983,-9.27884016199265,-2.9999014726264637,7.320547233548184,left,left_7
121,0.3630398236826062,-0.000032440964877605434,-0.28631694174706934,12.165065515602121,1.4755121060195147,2.307548675237543,left,left_7
237,-0.07883396493853069,0.11073825652301311,0.061358431804180144,5.087880056615607,0.8070722278016317,9.951314974462717,left,left_7
337,-0.01990596145193558,-0.023841186575591564,0.16656477316319943,-6.330847700171459,1.5146539991621535,12.301361940489725,left,left_7
453,-0.12198310597371309,0.1519819749288261,0.13836802172660828,-0.04260130391597113,3.473685441810626,25.215837519372936,left,left_7
553,-0.21256582389762624,0.018906798913329838,-0.2519499772429466,-3.855096225112243,4.159710282376941,39.31950025917414,left,left_7
653,-0.5479585841819644,-0.2538176708109677,-0.1344452953249216,-0.1991164894692017,-1.5502243436991106,47.66721402879116,left,left_7
753,-0.2876863669367507,-0.2804405970595777,-0.010863339319825171,4.62100717165444,1.7418867088856615,41.449969449989936,left,left_7
853,-0.09229129367377609,0.06186740423962474,0.6300087986201047,-0.19705034390505963,13.614115761229714,39.92253766099457,left,left_7
969,-0.1493832819388248,0.1583770827934146,-0.2734118674665689,-1.0508260979103428,15.95203658015901,52.09777332827084,left,left_7
1070,0.30046595167405904,0.14681845468580723,-0.01960486418008804,1.986630102650378,12.744082849658904,47.099843874816536,left,left_7
1170,0.5069103883482515,0.3182861974596977,0.09630991819798945,1.9936993484413412,12.44054412030166,43.58139145219494,left,left_7
1270,0.3581840907471254,0.18725904001519084,-0.026754735934734344,-0.5824255984526198,7.571306529867801,40.1027658626237,left,left_7
1386,0.5051700474869459,0.11112316418737173,0.04981061735153198,1.0264717777641927,8.791056226000665,41.14754916410928,left,left_7
1487,0.5105013255123049,0.20075755014419555,0.15748364108502863,-4.513848760652932,5.971111881870642,43.66907742075957,left,left_7
1587,0.4809679186444729,0.21482918398603795,-0.04940495916008949,1.2333690933378687,2.2517618245309943,45.94223267843151,left,left_7
1703,0.32407004155814645,0.2625833071991801,0.1662386099487543,1.4105237098404895,-4.068855959811078,42.59866383441351,left,left_7
1803,-0.024632241055159827,0.16422580882161855,0.08384440437853335,4.636582564283007,-2.4994893706327717,36.680267352557024,left,left_7
1903,-0.4759350755764171,0.142771809643507,-0.4535702816963196,3.9047230989610866,7.190739488372092,34.73195930690547,left,left_7
2003,-0.5690029796458781,0.1629962670266628,-0.06130991648733616,-12.296949638285897,3.5785109163237503,27.075356520908908,left,left_7
2103,-0.6203498666539788,-0.20245149458050726,0.27555881636738777,-3.784891698841444,-1.65830152186569,34.1543985106892,left,left_7
2203,-0.37164614132326096,-0.21437676404342054,0.05111176307797432,-0.39017882520520963,0.27982500625004747,33.3612120574702,left,left_7
2303,-0.36746279122401027,0.07500665260218084,-0.23163024279177188,5.643337506904077,6.425002284766908,34.31042393699438,left,left_7
2403,-0.43288072755206375,0.20836795208267866,-0.07032967376708985,5.483704886943478,10.096122668829803,33.911455512101014,left,left_7
7,0.18127043059226125,-0.05447122957371175,0.2019143189638853,1.1891326261263406,5.279098032619284,9.27092482651825,left,left_8
107,-0.12829935818212107,0.01942176269814372,-0.003686579558253288,3.8118632621001782,7.727928743951717,10.168336551377056,left,left_8
207,0.08593973268996924,-0.035680092929303645,-0.1922334674268961,0.01928029000562373,3.3744985019007583,15.526319426928579,left,left_8
307,-0.1584023816314526,-0.03552599834613502,0.004455225843191146,0.7319484712245424,2.177653845149533,19.83951558589993,left,left_8
407,0.03898346358994022,0.026512597741931675,0.5261749146580695,-1.5343952735759003,3.2475090635309427,27.22262222960355,left,left_8
507,0.06924386955806985,-0.2169870926722884,0.1103723458200693,-0.7694181419592918,2.222675037063672,39.745297667127325,left,left_8
608,-0.19274790148874743,-0.16102445549704134,-0.3005062106192112,-0.8530277682498874,4.394114690728962,44.32423258104178,left,left_8
724,-0.09658723730202763,0.13390914262160658,0.22887772921323776,6.231926070422164,10.090013918390873,50.51661185616957,left,left_8
824,-0.2655888091580942,0.525960541255027,-0.4539812005847692,-0.8747546533605508,7.700280138191506,56.290573742742374,left,left_8
924,0.15180438987221567,0.3421267995133996,0.07789046441018581,-7.147055305987982,3.9628151385125143,52.999795430819404,left,left_8
1024,0.244677319358848,0.11752630922794341,0.015083587363362311,-5.7849952034033185,11.045396873830162,42.576414493192196,left,left_8
1124,0.4769302606262266,0.13044643494710326,0.4612766182899475,1.634561064971195,12.6188214491491,46.77065607757861,left,left_8
1224,0.07879735012203455,0.09017477644383907,-0.6437567534655332,-3.84264479025531,7.01869513402911,52.52229007575464,left,left_8
1340,0.1215396365225315,0.0714277712021023,-0.05885960072576999,2.8990603462769835,7.165752948840892,47.39182080145624,left,left_8
1441,0.2748475262928754,0.039529607964307066,0.27827333602309223,6.298600242665713,-0.4047308633970392,36.02274894682199,left,left_8
1557,0.30239989714501425,0.4978504451885819,0.05227379259467125,1.608202831355587,-0.3904495781727772,30.81921713897197,left,left_8
1657,0.03370654610032216,0.24215090615376827,-0.31847265994250773,-7.489063368298031,3.0383289706706016,32.90934381745508,left,left_8
1757,-0.12910471974825485,0.30588132778629656,0.15950550230145452,-11.383072034885483,-7.07683114292332,37.98032555917725,left,left_8
1857,-0.1885775935341604,0.12777429312840102,-0.1253483811557293,-5.995029069909911,-0.9194042936560117,29.085612674785185,left,left_8
1957,-0.18039825086761266,0.13542648838199675,-0.054449383068084715,-7.734096404772238,-1.4176874043410692,27.57602646254377,left,left_8
2057,-0.3598297755949199,0.04139489037953317,0.024237200155854222,-3.3050506325239497,2.8281025782067792,27.545025941448372,left,left_8
2157,-0.38132140336968,0.056434346340224144,-0.5105559052437544,-0.8804078621983528,-4.946592897878839,30.421638657574697,left,left_8
2257,-0.3846528858799487,-0.3879709243867546,0.2261877594769001,-1.1033088446058976,0.5213185106303073,32.02348194248277,left,left_8
2357,-0.44205647911112755,-0.07305690677389502,-0.06585457417964935,1.3457213295946415,8.365562761465549,25.466442282662584,left,left_8
2457,-0.43531321539599444,0.18269699279665946,0.01800853489935398,-1.9287346444809996,3.671465735502804,23.999514016882483,left,left_8
7,-0.1687996012768708,-0.12055281744226813,0.055741760966181754,-2.6591490979066394,-2.0617118108753894,0.70361759359927,wait,wait_1
118,-0.17729668638939036,-0.1632216732803732,0.029492636466026304,-0.09044467129822127,-0.5830839646555855,0.311372369365867,wait,wait_1
218,-0.1519655169843696,-0.11964308218620717,0.034437107130885124,-0.13525655526689645,-0.9821197309453035,0.0014705584046022571,wait,wait_1
318,-0.12771545734694226,0.035640491571277376,-0.2037789437919855,-0.6376166218757905,1.318184995068912,0.19291403737259544,wait,wait_1
418,-0.0842470668952912,-0.11012122060321271,0.22361410959661004,-0.20254204278137466,-2.005791771480026,0.05214770724046722,wait,wait_1
518,-0.017938374006282537,0.003658814768493175,0.04331190298199653,0.3766777023306365,-0.16182116198105945,0.33964796514754464,wait,wait_1
635,-0.1596518885022029,0.03928725057579577,-0.19571312623620032,-4.003052209799883,3.575512463278115,1.6635213872171666,wait,wait_1
735,-0.10165386390867642,0.02078157980926335,-0.01549625981748104,-0.3980789528365343,1.2008078740171255,2.262810722730548,wait,wait_1
851,-0.14746581267863512,-0.0335600320354104,0.04432897107005119,-2.141479882644676,-0.36841266650681864,-0.38359209492651086,wait,wait_1
951,-0.08955223323185928,0.12097148124575614,-0.20775778429508207,1.2184349914393418,1.0172832523398216,-0.3610538580476439,wait,wait_1
1052,-0.03264677138170227,-0.051064928261563176,0.06947276467680931,-3.6356358437773864,0.5813886369983944,0.39357252208820687,wait,wait_1
1168,0.036194353461219,0.13042670733332634,-0.12238719326257705,3.4845240982497896,-0.7769588842463975,-0.2447277056739667,wait,wait_1
1268,-0.10992439199001527,-0.05564056561402976,-0.044538229906558986,-0.4746191732536079,0.4713390282655622,1.182937217662316,wait,wait_1
1368,-0.1359290036771912,0.011480740565806627,-0.12543196778595447,0.7429805073945823,0.39170393174167945,0.3105454895894723,wait,wait_1
1468,0.060020105005661024,-0.051138212693482635,-0.04942892455756664,0.3995567282964901,-0.397772928345206,-1.3939918772847084,wait,wait_1
1568,-0.016795825508190317,0.012925897872820495,-0.0420890831887722,-0.1171424667011995,-0.46015934261557356,1.5540892702739857,wait,wait_1
1668,-0.13672827342925592,-0.06481967817395926,-0.00630114597082138,-0.724017447659394,1.298719169377787,1.042358477608525,wait,wait_1
1768,-0.13203891916978172,0.0728502052206546,-0.16652502567470073,0.500380725812192,0.9044171510697112,1.358416303384168,wait,wait_1
1868,-0.12747035087891853,-0.06063654727041721,0.06710545102357864,-1.4758915016835676,-0.5790449216177279,0.06396345425691326,wait,wait_1
1968,-0.1392235151779372,0.023189079342409966,0.01839724195599556,0.8566184734017571,-1.5238105080747903,0.3402762891903329,wait,wait_1
2068,-0.06711059298957697,0.034277605720236894,-0.06931845089793205,-1.6219855127704381,-1.8923914213507735,-1.4395447567370505,wait,wait_1
2168,-0.11550682263169437,-0.018680954268202186,0.05127542920708656,0.5638454561977753,-0.848259015548749,0.1747311933479488,wait,wait_1
2268,-0.049260162128228695,0.021308014836162327,0.0339893633633852,1.7757134341935612,-0.9269290276872502,-0.7716054033192826,wait,wait_1
2368,-0.04814841062719934,0.021369754960760472,-0.2208762090653181,2.1394735145759847,-1.0653635152284802,0.7717684740857167,wait,wait_1
2468,-0.09511029661726206,-0.0044411242526024575,-0.10391513250470161,-0.061630837933648125,-0.9734935221886947,-1.2202540629143865,wait,wait_1
3,-0.09298519422207027,-0.033692499308660626,-0.04322422469854355,-1.1847162684976928,0.5889911711531475,-9.287844058866018,right,right_1
103,-0.146869673416391,0.0731924427870661,-0.0015314473509788513,1.1853088941298973,0.060347816246530316,-9.711693155358452,right,right_1
203,-0.15057543259914963,0.023301161414757368,0.04025836063027382,0.31486950626219284,-1.6943429360119664,-10.05373792993529,right,right_1
303,-0.6206488496005534,0.02768025328181684,-0.19948913764357565,1.3591852332743233,0.29035080800871316,-15.235781962656453,right,right_1
403,-0.47240653612408784,0.2169378467030823,-0.048960722523927684,-0.8751968547484562,-2.111132925275486,-23.3753525475065,right,right_1
503,-0.5276392515895888,0.21240071473009883,-0.22203882310390471,-0.3779944080561416,-1.3194432439800752,-28.98928993201508,right,right_1
604,-0.5115169322956353,-0.01678703028038144,0.11533785927295684,4.453759317656099,-6.153847616698809,-32.46054574747188,right,right_1
720,-0.33366365320309993,-0.09096300421208142,0.14405541971325875,3.4754215905202783,-6.9119759895685995,-28.95834234488575,right,right_1
820,-0.43308045137524603,0.14628515152670443,-0.014978373423218725,4.381282472825801,-3.437390456891413,-30.428817186392383,right,right_1
920,-0.4578013433948159,0.041522535347193475,0.02727554493844509,3.2494829882010765,-0.4657981440230951,-30.531010476754112,right,right_1
1020,-0.269127577743493,0.021037162005528805,-0.23499591983258722,4.491690773211765,-1.463465146427493,-28.391397370186965,right,right_1
1120,0.09586418372448534,0.0043846448250114915,0.1396831959784031,-0.293369164652477,-2.456604533824966,-30.548967044082076,right,right_1
1220,0.6219798790086061,0.49039625672511755,-0.5850754319161177,-4.889320907914636,5.307204261053886,-21.821822605692514,right,right_1
1320,0.08595672035738826,0.007941022132337093,0.4540168564200401,-0.21466864344633563,4.205962189002152,-25.80171065580912,right,right_1
1420,-0.0047479251794517036,0.0956073959518224,-0.13746785801649092,-2.854639570679571,-5.2997888100493675,-35.48747726685185,right,right_1
1520,-0.07167699672281741,0.07125614096224307,-0.11726444342136383,1.984551377265167,-2.569176723517354,-42.78390880998801,right,right_1
1620,0.35076435254253446,0.02203969011157751,0.8698141645610332,-3.560902475200046,-10.564963928932404,-45.106668316507175,right,right_1
1720,0.23346111148074267,0.21932459570914506,-0.8695826938927174,1.3554427164959795,-12.445503691412735,-51.17975150759152,right,right_1
1837,-0.06784004890844225,0.2540992642313242,-0.18742109870910642,6.409857194056051,-6.866355875441615,-52.92899368988305,right,right_1
1937,-0.18027338237892834,0.2855714571420103,-0.2016273187160492,0.9666593843155681,-8.229575402637888,-47.0550958904692,right,right_1
2037,-0.4919438880259171,0.06546842440627515,-0.25034020395874973,6.385229239456277,-10.630818051588728,-46.32869844204917,right,right_1
2137,-0.2489288758561015,-0.06252316473461687,0.21785481541752813,11.113305175879367,-8.306252813807744,-40.95494465970409,right,right_1
2237,-0.11500731214433908,-0.007264218849316239,0.2550269004702568,8.742154632864311,-7.6671801876999774,-32.426975367701274,right,right_1
2337,-0.2411783895934932,0.07071655419282614,0.1891436847180128,-0.337641276913736,-1.190601436963011,-30.236438078229803,right,right_1
2453,-0.4478923456577584,-0.018928864614665506,-0.038574937587976456,2.3774087038420797,1.7484715448540826,-23.61276309286697,right,right_1
1,-0.1827863150479272,0.17206315138377248,-0.010621931779384612,2.926330303425083,-1.399516859993014,-17.305281469846125,right,right_2
114,-0.11743691391143947,0.2665001153167337,-0.19921090522408486,0.11205981878293154,-1.8519592627852368,-19.328584992584418,right,right_2
214,-0.36995826130155474,0.13384740249700844,-0.15558686755299567,-6.085189274501372,-1.8053829221744504,-26.395054311650007,right,right_2
314,-0.7102054941460489,0.0544601236578077,-0.23573592454493045,-3.4378299368758207,-5.055880620354097,-31.775242132193238,right,right_2
415,-0.41222251839414237,0.033942747742682695,0.10044950222074985,1.8885037630525667,-6.147227882732598,-30.344191142575923,right,right_2
515,-0.3114030138172209,-0.11100691739656031,-0.030144962894916534,1.7077114304866796,-7.655005375504429,-34.73147777856899,right,right_2
631,-0.5174919515846297,0.02527012340016663,0.12251812616586684,-3.3207496088878123,-6.661381898449532,-34.057464465988375,right,right_2
731,-0.6338254342988133,-0.020077377062663434,0.1890390552997589,5.456588609051704,-1.9070545568383215,-35.09577957832996,right,right_2
831,-0.4541300710035488,0.0007487725406885147,0.042748423880338664,1.112188624135443,-1.2923285669138882,-38.72195091435182,right,right_2
931,-0.2529095429901034,-0.14980053923651576,-0.2158656874269247,4.73954510470001,-0.9683127169815343,-34.59348405167263,right,right_2
1031,0.1450455997943878,0.1777988454915583,-0.01624561688005924,4.9456324025268055,-0.6220989656900504,-28.156303966502417,right,right_2
1131,0.4349677994918078,0.19247677466347812,0.3488070079296827,0.14720095529966204,-1.1874828152766652,-25.083321604190935,right,right_2
1231,0.22919227505512535,-0.014868117981776594,-0.5349538489192724,3.954895107283061,5.567190716055367,-31.663565124168947,right,right_2
1331,0.21138810362145302,0.04098755168765783,0.29812019226551056,1.077065550267416,1.1032650887065272,-39.841019353250466,right,right_2
1431,-0.12690467068701983,0.19390936474986373,0.04065174386203289,0.5000349474854601,-4.015265868696335,-44.93465683244957,right,right_2
1531,0.37806342448703945,-0.09715973996035754,0.3734475281894207,-0.5229753117517115,-5.453254196076268,-49.2802690692218,right,right_2
1647,0.8257268932923674,-0.005129837169125676,-0.5425760143607854,8.505904365889094,-10.168117131549968,-40.202742756599754,right,right_2
1748,0.20432401045411824,-0.09525471005663275,0.28009412170946596,10.063552057998951,-13.349177845966796,-33.91920436171439,right,right_2
1865,-0.2421233970923349,0.15879391996599732,0.021414543950557707,10.544989040704701,-13.44423188109857,-28.92160617243484,right,right_2
1981,-0.17518318310044706,0.2244851933427155,-0.5747177040308714,-8.0322102563812,-2.553808584441414,-38.28927209080985,right,right_2
2081,-0.3529861567778513,0.013855360742658376,0.20426409696042536,0.7773279279049897,-3.5051081539740925,-28.08614597089534,right,right_2
2181,-0.31195874800384044,-0.17217523345611987,0.36470951046049593,-1.2793491797784542,-9.059225674514643,-20.433456883293193,right,right_2
2281,-0.21444697973541915,-0.16961765792779623,-0.29882629470825195,-7.368785444561399,-2.8790062705435915,-21.314409559799557,right,right_2
2381,-0.5107589535351842,-0.0065402154237031935,-0.19018296463787554,-2.417835099435504,1.7848086848470794,-18.56743554166737,right,right_2
2481,0.2075310628671199,-0.29077187532931564,0.096482352155447,-7.408812060644967,-8.068301829729194,-15.986344620359985,right,right_2
2,-0.33944501308351754,0.08560995274633168,-0.13855097707808017,1.00306621358244,-1.1308152970540082,-18.252408434126163,right,right_3
102,-0.19320180100239812,0.2405306845407933,-0.0951408744186163,3.221886462633286,2.5412971719858315,-19.313229019782938,right,right_3
202,-0.07279913262054323,0.013075097085162997,-0.09557868131399154,-3.491241802741909,-2.5402028476147485,-17.51168807901662,right,right_3
302,0.07915157038718462,-0.20694610258601603,0.22689561548531054,0.8792722365271324,-4.463069719268472,-20.9895777157048,right,right_3
402,-0.28823643856756387,0.025023966619372368,-0.47051323319077487,1.7266691541365788,-4.878886940183794,-29.23834253481584,right,right_3
518,-0.08860321627818048,-0.3649999447744339,0.43937633664906023,-6.4972844692058604,-9.21113761939219,-34.77727761204851,right,right_3
619,0.37750648472402243,-0.10754778991863131,0.2637707634180784,-0.3099938717727145,-10.628336131599074,-41.95650310902725,right,right_3
735,-0.2186665336592123,0.19520283862650392,-0.017200141125917435,3.47882921458588,-3.198922085983234,-44.60952275248404,right,right_3
835,-0.3728976026890799,0.3013266601566225,0.09934592489302158,0.5953065881753233,-8.17327244576218,-43.12292866453618,right,right_3
935,-0.5473842548927292,0.4185653846148401,-0.520513820156455,-3.118681450500747,0.36661960844755803,-45.72279236077734,right,right_3
1035,-0.6244071792207658,0.13366378955841063,-0.13365735981762408,0.8837951024181502,-3.470535657386192,-40.68320899866972,right,right_3
1135,-0.4804395839214325,-0.08453684362210333,0.12967968835830687,3.1705834176734395,-4.565421384641583,-39.734034685185975,right,right_3
1235,-0.12045414284076542,0.16462722922936082,0.08017769856452941,0.007717686875291283,2.547813385897435,-39.71624887258726,right,right_3
1335,-0.3904539733741432,-0.040075916735455394,0.15472703585326672,4.039946757262176,0.48881721554736035,-29.25179459238618,right,right_3
1435,-0.3119268915608525,0.15323877005688846,-0.39273324341773985,4.386684298685635,10.394641209147087,-26.80179549181885,right,right_3
1535,0.19615692448094485,0.5235888436876237,-0.7655237690031528,-11.502212732125308,-1.3670348281779605,-30.880634199988723,right,right_3
1635,0.8713895971842109,-0.31739114831611515,0.6989566626399755,7.000063658633785,4.79990988969776,-23.506138717281196,right,right_3
1735,0.25415713189840317,-0.13590038950406014,-0.27823417305648324,5.7240396070423625,4.729828733718844,-30.433584658433052,right,right_3
1835,-0.06614603140689432,-0.08978285451680422,0.05866144780516624,6.85069211724066,-2.8790604851701285,-29.33494190024733,right,right_3
1935,0.1158837296526879,-0.036243864291906354,0.03985270243883133,0.7821407566706158,-10.191416614356175,-41.75951362317491,right,right_3
2035,0.26990283643230795,0.3021144495334476,0.33007074327766894,5.326357392147071,-10.18688051497364,-44.51011959439826,right,right_3
2135,0.22800949501134454,0.12877704043015836,-0.37531449110507964,1.4284483673784243,-13.341371793519118,-47.30798022939434,right,right_3
2235,0.09188892341796308,0.27932218748889864,-0.0721393535375595,0.4534948922546394,-13.190926631765832,-49.47568078137587,right,right_3
2335,-0.11436488605495541,-0.10955832602344452,-0.05134557183384895,-6.526602629331316,-8.733482853939334,-48.97485033029552,right,right_3
2435,-0.1500388232381083,0.18775047679394483,-0.15184534293711185,2.6295897467261167,-12.803047018989977,-31.45117356173823,right,right_3
15,-0.2634626838495955,0.01280460958071053,-0.1959323219448328,3.528515852589961,-1.4273100736645594,-8.131372650298738,right,right_4
115,-0.24114004861079155,0.06638831573016941,-0.18253157310187815,-3.3275294254126964,1.9554991676305178,-12.396016409555054,right,right_4
215,0.13726685555167495,0.19182802843116223,0.2514706692934036,-0.6790868624734634,2.333181094532131,-13.74745044533847,right,right_4
331,-0.15222133664265275,0.06860087721310555,-0.0683662647396326,4.365606761793798,4.719120277760734,-15.222679952281077,right,right_4
448,-0.2475099489688873,0.20392397828586398,-0.5525421125799417,3.6799919460210955,-0.8214308329017324,-29.78860648001416,right,right_4
548,-0.2584514680914581,0.11130896908305585,-0.18884908568561076,6.320510635749468,-11.219716961827228,-38.93183238226256,right,right_4
665,0.016611089191585778,0.05489135468192398,0.30376258206665513,0.9655604709111365,-16.624026449198006,-58.522932280501834,right,right_4
781,0.2617764843283221,0.3050779755141586,0.0679874945551157,-3.494128838326709,-7.204728569565924,-59.05768828118964,right,right_4
881,0.13029924502875656,0.23194062391519546,0.10667699843347073,2.2272606553176892,-14.233475607619177,-47.447674673394026,right,right_4
981,-0.5514132181478664,0.06507482197880744,-0.0050374096453189845,3.212169664765297,-8.686458709051088,-43.81945086552657,right,right_4
1081,-0.6478184499464928,-0.19609350385591387,0.1896276688426733,1.7841576824418126,-7.824242095211713,-41.78254160596161,right,right_4
1181,-0.4456264100197702,0.05428374417759478,-0.14237784188985825,-4.269775365757112,5.685556613711219,-40.419457828775094,right,right_4
1281,-0.10115944058839231,0.004342924575135111,0.17040332841277123,2.3355981277246696,-4.362970735660997,-32.19384393585581,right,right_4
1398,-0.4602794970113784,-0.09328845148496329,-0.021181904238462446,-1.9880469400163328,-1.3530628224570531,-24.29667676464952,right,right_4
1498,-0.04023048624265939,-0.10296148504167794,-0.19235738606750963,-3.3088356245411945,-2.1607376010095267,-27.86992267234025,right,right_4
1598,0.2852957089405507,0.08969773351661861,0.2616097859919071,5.945128988494267,-1.0469798476339793,-32.346703569480695,right,right_4
1714,0.20529698367211965,0.1743101265929639,0.3082604780077934,11.881657915049843,3.99080439995758,-34.22328096846878,right,right_4
1815,0.2896519679212943,-0.022543255719542504,-0.298035436591506,0.5778437154583048,-5.340909537060607,-37.63398374183883,right,right_4
1915,0.4468980373907834,0.13920206139795482,-0.3151718648314476,1.1332206975806163,-6.219295769986341,-35.426965205900125,right,right_4
2015,0.48200036696474996,0.14400493163503705,0.6654325787007809,2.984828952675538,-9.244903513327793,-37.483822032936104,right,right_4
2131,0.006282075944170355,0.2374434591151774,-0.7614262705564498,2.3147910236352836,-10.349004446434002,-41.260735643940144,right,right_4
2231,0.030127682966552674,-0.04094290882833302,0.4036503587514162,4.892867483641164,-10.031553475511087,-29.946144793220505,right,right_4
2331,-0.010231763418018817,0.015263254779204725,-0.25564590915143487,2.651665558453833,-5.819041135094893,-23.258505086280504,right,right_4
2431,0.06775337527198716,0.1381192345973104,0.15446049387156963,4.31365890428762,-0.44597181240984063,-12.288855864119432,right,right_4
11,-0.014820844773948192,-0.02444996612370014,0.0896200651705265,0.5619870044132971,1.6425213302837276,-6.412819361721721,right,right_5
111,0.03806377319544554,0.05499079646840691,-0.06259060394763946,0.5571101426242022,2.8237750130373414,-4.60489475540238,right,right_5
211,-0.2696183569351211,-0.06019384500421583,-0.1444184078067541,-2.218073197110376,3.781015993374285,-10.440170396380747,right,right_5
311,-0.2718881284980103,0.1969206753950566,-0.17622282834649086,1.189678400929707,0.12450183544932958,-14.050336891629978,right,right_5
411,0.11096523367930203,0.1484850727237761,0.20687866337299346,0.1288567213754474,-3.014934932433073,-19.65578520477388,right,right_5
511,0.13873586865831167,0.06863412189558148,-0.032607553616166116,-0.12963029365980422,-7.617853415287791,-23.829717221663255,right,right_5
611,-0.08907879790067673,-0.20733210622891782,0.24572189650833606,9.459933236325428,-4.760119768914205,-27.325042623755188,right,right_5
711,0.21194186504669485,-0.015937719974666833,-0.1616074430167675,4.827227231283226,-12.672896910581738,-40.521801383298566,right,right_5
811,-0.08908380286935716,0.15513240178376436,0.39987434734404087,8.03206426108769,-10.24513946727291,-45.14266341343314,right,right_5
911,-0.5700398484129459,0.6007246903382242,-0.2904237925440073,4.279552781553985,-4.397058929148061,-45.56142914163579,right,right_5
1011,-0.3152179689954966,0.21087197079285977,0.03937339448928833,-1.9929085406015008,-10.813078234495933,-47.37449944172109,right,right_5
1111,-0.538920231799595,-0.1960835669837892,-0.4194517389953136,2.7567345718995506,-11.213765305739207,-39.326187014371584,right,right_5
1211,-0.000628113294596551,-0.12564853314608335,0.6074152740180492,0.48515890219487806,-8.300937219086181,-38.3600977374083,right,right_5
1311,0.0873671077451203,0.17501579064428804,-0.4209557138174772,2.5254665010370343,2.5500682020971857,-29.701248360529696,right,right_5
1411,-0.4541276233181357,-0.05185512879118323,-0.13598083432912825,-6.179860392152803,1.5981150688383012,-24.398929819166487,right,right_5
1512,-0.6812742178898304,0.00024886019453406334,0.028937925192713737,-4.456854674010584,2.9284451007468477,-28.11526648242169,right,right_5
1628,-0.3880836640462279,-0.032456893099099396,-0.22860300392508506,-5.216308957353003,7.1556873844384095,-32.090294852943835,right,right_5
1728,-0.2710591668605804,0.24282851315438747,-0.3453478073865175,-8.240507120404494,6.385830296103238,-33.252256879830156,right,right_5
1828,0.22927677500080315,0.13361644328534603,0.4572001626312732,-19.47111567263695,11.626222500469705,-27.54367868663459,right,right_5
1928,0.5189855146106332,0.1859188774526119,-0.16892565707564353,2.869417965609363,-3.646773747879562,-21.60024443882813,right,right_5
2028,0.10601225091442465,-0.2692152925595641,0.5121469738274812,6.790282509126482,-3.015762239096291,-22.32512217015783,right,right_5
2128,-0.057988736175373194,0.01167019872330129,-0.4293295744091272,1.4192382841694853,1.2658873038111822,-30.57109344189833,right,right_5
2228,-0.07952391083091497,0.19344547356516123,0.16349194158911703,2.9205161048941095,-3.178819558595417,-32.1133535715818,right,right_5
2328,0.39873957116045056,-0.037911651373654605,0.11081365984678268,1.354223634450838,-11.299530283599765,-38.599926169734964,right,right_5
2428,0.47354014326389876,-0.0703624800581485,-0.09622633156776428,4.638973130492512,-9.088925044573152,-34.12969371646126,right,right_5
7,-0.41199210717175155,0.1540776320338249,-0.21444588375687598,2.2031061182047624,-3.915508821434183,-16.97078661562309,right,right_6
122,-0.7104499704264104,0.13050970944166182,-0.04639408690631389,-0.4462833330690167,-6.724581211952837,-27.54718598877339,right,right_6
222,-0.5513069812944159,-0.06906535291969776,0.13630933563113212,1.5506250837043198,-4.411997406636526,-30.795454910849497,right,right_6
322,-0.363370736137405,-0.023802315869927405,-0.12582125936448574,-0.6131964544371735,-2.5582206732018307,-29.998255721493116,right,right_6
422,-0.38717020246312017,-0.005379281885549426,0.15470833115279672,-3.476300763932506,-4.635118342479686,-32.50955576986131,right,right_6
522,-0.5769883889092132,-0.06922923824451864,0.2784159593641758,9.749587898647329,-1.3991482432212448,-26.67058243522103,right,right_6
622,-0.26023298121336846,-0.047809871988371014,-0.042401217877864834,8.015403722154737,1.6301650911883514,-25.00680299491928,right,right_6
722,-0.05749704366829246,0.2819144690044224,-0.26069384019076824,5.2836725518159,3.336768963812431,-22.136081316952094,right,right_6
822,0.058688737670890986,0.24560718408748505,-0.5082306771665811,1.3376900943477643,-0.8070093687169264,-22.378250796616772,right,right_6
922,0.28813970019482077,0.17460253366827963,0.5690414119601249,8.070060603440472,-4.85753918393292,-22.427788451119582,right,right_6
1022,0.11648951352611184,-0.0672881141141057,-0.1041466031730175,-3.360641328735272,-3.4672633564435213,-29.48998036421745,right,right_6
1122,0.06874324482586235,0.0844981921121478,-0.115195820453763,-4.012956837870047,1.578274970125001,-36.12296831251359,right,right_6
1222,0.09141483963280915,0.21657982704564926,0.09492577036321162,0.3451323669272269,-6.658604145891452,-37.94209699039269,right,right_6
1322,0.4461404604891315,0.040911417711526156,0.25645664101243015,0.5948188699799022,-8.517843536558276,-43.64339590948032,right,right_6
1422,0.2564918949889019,0.12149703948982059,-0.5853811368644237,2.649810308320528,-10.108884877293972,-45.65607507296466,right,right_6
1522,-0.10082109374580904,0.28916648595929145,-0.575070755252242,-0.6952812409955637,-7.073263649742457,-46.01368328733901,right,right_6
1622,0.2511409806813113,0.1570215765312314,0.7112748769432305,-3.1249116502408567,-20.564459911574037,-42.21880969391242,right,right_6
1722,-0.5463805942755192,-0.06847060189694165,-0.5023018716394901,3.3287080599313468,-9.058941367890442,-45.0083340830265,right,right_6
1822,-0.5343034221865236,-0.16386749690324068,-0.004521276816725731,2.241684093854052,-10.367730263817238,-37.19708727648438,right,right_6
1922,0.06201661258512176,-0.3059117229245603,0.6250824481338262,2.4279324669063103,-3.598903513307881,-32.25286701556848,right,right_6
2038,-0.23852142707761376,0.10198007278889418,-0.37095103519856926,2.1999142854282505,0.04259836906906214,-29.556127331234435,right,right_6
2139,-0.6668003599226474,-0.031056670912355182,0.5101730434060097,2.097535726185283,-3.898196426322316,-26.29437390818943,right,right_6
2239,-0.17660090441126375,0.09231894886568189,0.1966208887308836,-0.9238855380817748,-0.26931211781778136,-22.99668002973182,right,right_6
2339,0.25796830595070497,0.052669513913989066,-0.35717969947755335,2.093990858006047,0.11853742611746883,-11.63847329851977,right,right_6
2455,0.21924104561153798,0.3417817854680121,-0.13497370311319828,-5.16394403142063,11.365592727025774,-9.684314342070456,right,right_6
13,-0.14853815461788325,0.07774842559099197,-0.15032850863337516,-0.04744236057277634,-1.4234518705571484,-14.360542739390802,right,right_7
113,0.08935936840772628,0.034474662662297484,0.3755418701201677,-1.2697751755528004,-0.5630123332015924,-14.416997667975542,right,right_7
229,-0.14876440112181008,0.03546951891854405,-0.02418810031712055,-3.568747801235452,-2.476600552950413,-16.07717759858469,right,right_7
329,-0.29975988576393575,-0.05359890371859073,-0.10114099161624908,1.2117782250412237,-1.3344455410485967,-21.303682747708052,right,right_7
429,-0.024491101851686833,-0.07101429503038525,0.017812135544419287,-2.6262068820962563,-8.705626781183083,-32.12903227082156,right,right_7
529,0.07298497404884546,-0.007377104639261961,-0.08393734335899353,-1.678362534509958,-6.907830064742401,-35.83771570711176,right,right_7
629,0.24519341565482317,-0.004782119709998369,0.22935762168467044,0.7023492061260574,-11.23649617529701,-39.3448846572245,right,right_7
729,0.07204089813176542,0.302122559774667,-0.07316694301962852,1.2281496548732154,-7.982491601865385,-42.81772166147416,right,right_7
829,-0.6128918057329953,0.39828868558779357,-0.38468437699675556,-9.644157952392659,-10.879121041128078,-45.898338467730426,right,right_7
929,-0.5728198345202953,0.0708256405904889,0.1418687233239412,-0.07135952193161892,-11.25694746921932,-51.60428874564283,right,right_7
1029,-0.3962902783121913,-0.027592794194072484,0.15059095896184443,0.030542364812475613,-8.956056520875247,-49.392741794284404,right,right_7
1129,-0.15700018668333068,0.13938267866186796,0.24261048648953437,4.680747421229956,-8.395371414550779,-45.555708858205904,right,right_7
1229,-0.11763019886068067,-0.00614580927863717,0.14001111275851727,6.184527545790037,-2.7183388769237355,-36.592007648102125,right,right_7
1329,-0.13867900563823057,0.116104532796517,-0.2830038716763258,1.592255406860665,0.6906066168389245,-27.5550185082041,right,right_7
1429,-0.18977109590135513,-0.10750614273399114,0.2473579732775688,-2.806622060153912,3.5214414841571204,-21.647792800735175,right,right_7
1529,-0.442400104917027,0.16777100714780388,-0.14207213694155216,1.7664811528698197,6.359766721117293,-13.209129085903916,right,right_7
1629,-0.006972871219925582,0.06925510333813727,-0.01054886654317379,3.425263029133232,7.41115481553028,-18.64326600938014,right,right_7
1729,0.3557718785062432,-0.05741458954922855,0.06261749195456505,-1.8976920750335264,1.297238619153481,-21.265899848766836,right,right_7
1829,0.09518719777837395,-0.14620719091966747,0.12557283756136894,4.046184854408513,2.390296417032247,-28.490614405617862,right,right_7
1929,0.0798542752964422,0.13993885123990477,-0.23706045114696025,1.4172472840264265,-0.5681722209544197,-30.155985279996223,right,right_7
2029,0.3507079096475616,0.09149689189307392,0.05750760159492492,-4.793406695834261,-5.050622228466833,-31.603213572662714,right,right_7
2129,0.45088776461407537,-0.006611161768063902,-0.03504617893993854,-0.7806896616371054,-5.923976746408385,-29.977304116214103,right,right_7
2229,0.332995142824389,-0.14010741273984312,0.19802841744124888,-5.59216146077411,-16.637239450147398,-32.411057611840555,right,right_7
2329,-0.15364006260046734,0.2914662142690271,-0.5430500616133213,-6.755119414618787,-13.016659477734834,-32.55685141476906,right,right_7
2445,-0.1459265199479181,-0.02664448049329221,0.32808044624328614,7.315452766201001,-13.730796736594687,-33.34356626374947,right,right_7
6,-0.4305589700736105,-0.041366175741702316,0.14243103338181973,2.3656994117271504,-0.8471023123406368,-11.16332265117137,right,right_8
106,-0.34148725950084624,-0.01861066551096737,-0.1258838032066822,4.198160405422705,-0.3684091446905278,-13.438592706165078,right,right_8
206,-0.031066388588771223,0.09447875724807381,-0.10668109008669853,4.044502920325398,-1.9158706235095153,-11.131239545092528,right,right_8
322,-0.04610284887477755,-0.021157719645276664,-0.298887669506669,6.765575153577608,-1.6422854753139506,-11.58741848824757,right,right_8
423,-0.12883278920538724,0.1360883863568306,-0.12362053444981574,5.258947693907277,2.7393944291441805,-21.96828576715968,right,right_8
523,0.3643589434571564,0.1868693100452423,0.16354337951540945,-1.8379492641370712,-4.459396358155475,-26.027456945614503,right,right_8
640,0.3778312962315976,0.04942848616614937,-0.23986031099855898,1.4036188154764297,-8.552758609821735,-28.234531830613868,right,right_8
756,-0.018793292068876324,0.03211290196701884,0.33021570470631123,5.842612971694254,-10.178388028514375,-37.88334370315224,right,right_8
856,-0.27363069784902033,0.14406871758624912,-0.01999064862728119,-4.876638100399568,1.066573099041807,-44.94556464455408,right,right_8
956,-0.1442503212308511,0.6062773560293019,-0.5789800376504659,7.248291516092265,-13.666973741442796,-36.59944230901368,right,right_8
1056,-0.48781946503967044,-0.1527948256816715,-0.19673662406504153,-10.29451319723564,-9.179016093499266,-42.30096662434392,right,right_8
1156,-0.29484676008541133,-0.3284326206818223,0.2763759779691696,2.922339978845914,-11.874188249418788,-39.824582503012834,right,right_8
1256,-0.2508417054737918,0.12635244363173842,0.10495558146834373,2.921933582590299,-7.748239165222396,-35.63008820162713,right,right_8
1356,-0.12647578688361683,0.06708586954027414,0.10505144305825233,-2.278845872467622,-2.9901667455119028,-31.197179317072965,right,right_8
1456,-0.3494645219903439,-0.10038345124721526,0.26727731023430823,1.1252448508990398,3.4656371310908236,-23.588550072259277,right,right_8
1573,-0.5062609479961917,0.06804010152518748,0.2121925518721342,-2.8792034922558756,3.856319682747322,-19.086973880884386,right,right_8
1673,-0.3924109526608139,-0.01128127247095108,-0.03616086218357086,0.35674523598098234,6.357615638415562,-19.001033025652703,right,right_8
1773,0.13444003462791443,0.1242899581439793,-0.3534691545218229,2.4287170848872153,6.1539295789688495,-20.100059981979236,right,right_8
1889,0.26409024116341023,-0.04091872423514724,-0.07161036122739314,1.1046967603895852,-3.0468603038307704,-28.624351217114004,right,right_8
1989,0.21836046338472515,0.1653833082936704,-0.040457682594656943,7.196808111449648,1.0385588647175883,-22.980593226689148,right,right_8
2089,0.4321055053958669,-0.10193784108236431,-0.04120177896022796,-5.787558231889366,-4.325051232936379,-31.18770242959957,right,right_8
2190,0.36801706410590557,-0.17787191072776912,-0.009485036703944206,-3.57961847418635,-3.771050320488413,-28.913444096376672,right,right_8
2290,0.34947350901439783,-0.03540427166260779,0.1663350560605526,-3.2558813813494973,-6.2173393476759555,-29.674183735943522,right,right_8
2390,0.2553394370181486,-0.06533763763345778,-0.33726270060837266,1.5515808833012985,-11.843063931144686,-35.21909181360537,right,right_8
2490,-0.20885847554598003,-0.016604513320326805,-0.0014607202023267745,3.463142191053065,-12.686566680431874,-36.47207294137128,right,right_8
6,-0.19228338924953714,-0.04244439943246543,0.19070494268536567,0.031086698872813893,-2.695706191335252,0.03417625223454718,wait,wait_1
106,-0.21050794151974841,0.1802695464540273,-0.03713116852045059,1.7886682753366656,-0.863413924656538,-2.5629813150533294,wait,wait_1
206,-0.045231801661290226,-0.014760127562656997,-0.009074117815494536,-0.4425156299681084,-1.025826538331038,-2.3928863393881517,wait,wait_1
307,-0.13251503964839503,-0.12467640017829834,0.04787000467777252,-1.029082724296136,0.6406317768683809,-2.277619853511605,wait,wait_1
423,-0.0035081907840445637,-0.10847535309232771,0.006866963160037994,-1.1208280663835686,1.3824761783440669,-0.2292258443006823,wait,wait_1
523,0.03715005588401109,-0.19361403506509958,0.00010930559337139129,-3.542503653123324,-0.03666402857780532,1.5884106506881825,wait,wait_1
623,-0.08852841574260964,-0.11400814503915607,-0.04298807785511016,1.5508708637927346,0.20552455427220914,2.3964013254897694,wait,wait_1
723,-0.16544179701525716,0.02123451120853424,0.14731938994526864,2.8121256985210614,0.9183682393362854,1.4756177605082381,wait,wait_1
823,-0.14350653539253397,0.12061426530592143,-0.23307459638118744,2.860422606472456,0.9534865107275522,3.8138935358309642,wait,wait_1
923,-0.10132672344669699,0.010760755728185176,-0.1873059478968382,-3.3704635676485735,-2.8175781104694355,0.453915055610301,wait,wait_1
1023,-0.03367878131056204,0.0027815204773098227,0.10033084427714348,-3.51840418441058,-1.4185228218539265,0.5659275966775713,wait,wait_1
1123,-0.05424851760058663,0.030976226087287066,0.22203765406012535,-10.721947289268684,-8.597488664922503,-2.7000572352799614,wait,wait_1
1223,-0.005964214767189696,-0.03731967682987451,-0.37840602737963197,-1.9591699674225767,2.0330877687243354,2.2396484840379767,wait,wait_1
1323,-0.091920953390887,-0.03328530674725771,-0.05937456451058387,-2.1282331576362594,-0.6794516906246773,0.02324670892269707,wait,wait_1
1423,0.02485352368960157,0.04635368183068931,0.057229953697323796,-2.1929368203042596,0.20713071594421997,0.9897658075560154,wait,wait_1
1523,-0.09274410634203814,-0.036257965882495045,0.10152443797588348,-2.3861212504586655,1.9629105632102164,1.7661812648765738,wait,wait_1
1623,-0.17552598692243918,-0.14841259200945495,-0.14460662385523318,0.1589115547554869,-2.43130572658265,0.9136764329850156,wait,wait_1
1723,-0.13874616172346285,-0.10991985281221568,-0.1384416714847088,-0.7499191791785219,0.05462953384862804,-0.2143283746276647,wait,wait_1
1823,-0.09123102576481178,-0.02241721818707883,0.22300153065621853,-2.563966783284515,-0.17475497894812483,0.2436457610207544,wait,wait_1
1923,-0.139767558926763,0.010952698103711009,-0.04243979632258415,1.8034719633107277,-0.7678674222134345,-0.07327667065427687,wait,wait_1
2023,-0.14706204505017959,0.022759163492545482,-0.06633505117297173,2.3204666973921526,-0.7227038101829302,-0.7168303277443951,wait,wait_1
2123,-0.14210026705749332,0.0024871406406164168,-0.05721592517197132,0.04419599300461044,-1.780121574250864,-2.0499922734767053,wait,wait_1
2223,-0.08536196933463215,-0.05987893383614719,0.10061083026230334,1.2147942871683133,-1.103317809229183,-1.1218575039575365,wait,wait_1
2323,-0.30427725359052415,0.2530112497989088,-0.16901625796854494,18.35219920544734,6.153391701571711,-1.6542155746381415,wait,wait_1
2423,0.0935142778637819,-0.07823167906329036,-0.05621288560926914,-9.13545400074657,-0.18033972581166807,3.1017084304132654,wait,wait_1
14,0.07918649557009338,-0.23324023527167737,0.22493396002352237,6.994398016717259,8.648744965775217,6.139902077960936,forward,forward_1
114,0.04237688715420663,-0.12629859455265105,0.07264613401591777,4.000991627104654,11.00756445601746,-1.155009534641486,forward,forward_1
214,0.22633345155790446,-0.3456219481527805,-0.1947813983440399,-12.408880217083126,1.9869617937119468,-3.4341824024156224,forward,forward_1
330,0.30917459717802703,-0.7865900109726935,0.4093319115191698,-8.992996745227614,0.8952017317754831,0.19773809859775496,forward,forward_1
431,0.15279650618210433,-0.8527376498147845,0.2689437821418047,-7.182647421752919,-3.7578774469003973,-1.8678390257186932,forward,forward_1
547,0.4143796233627945,-0.9485082735043019,-0.17308745293021202,-2.846299696259574,-8.511001394557216,-2.257577303722437,forward,forward_1
647,0.5115349063437432,-0.8399075404666364,-0.8117068435072898,-0.08332742742008287,-16.052798945889624,-6.730885476556758,forward,forward_1
747,-0.3215974774321541,0.04894716892261058,-0.9337836556464433,11.193284983512923,-22.630530663800364,1.5226536447841195,forward,forward_1
848,-0.5415205870237201,0.4278139091491699,0.08650339445471764,12.002918532253311,-7.079433444997094,-14.02759833810936,forward,forward_1
948,-0.9730513978041708,0.4806072686385363,1.0431962165236472,6.4772020054987305,0.12527452727961372,-15.329476790143396,forward,forward_1
1048,-0.6856009219825268,-0.14357479658946395,0.7466238382220268,1.0891422852153505,-1.311433993404589,-12.042697553979464,forward,forward_1
1164,-0.3232144841747358,-0.6017157472021878,0.13684417316019534,-1.3069144358864504,6.132349596286194,-2.3336229223940665,forward,forward_1
1264,-0.4537523602649569,-0.9485608804743736,-0.04775368482172489,5.295201484248058,7.561240538578494,9.798894180492004,forward,forward_1
1364,-0.4356665223456919,-0.6442843575362116,-0.29463001206219197,13.729455458196426,19.030927056102556,12.329908716125793,forward,forward_1
1464,-0.03545351763181388,0.5030671569235623,-1.3627648550093172,16.75925224193321,22.433466045867156,17.47762080298389,forward,forward_1
1564,0.3201826056655496,1.179619095531851,-0.4426221867024898,12.840800889627223,17.65107345695636,11.935275753808089,forward,forward_1
1664,0.22476430254504084,0.8720463075272739,0.33400866724848743,-3.6514494392532586,-4.918646325116085,5.0207495423581365,forward,forward_1
1765,0.25360095932036636,0.299729819419235,0.9321820656687021,-0.4989902487075655,-7.03584958101642,2.4730379689680166,forward,forward_1
1881,0.1218015753943473,-0.057481151979416605,0.4037275156408548,-1.075780834373219,-6.217037111805182,-3.2606808699019005,forward,forward_1
1981,0.23309373947307466,-0.44196664540320635,0.3649228609502315,-6.384684104983146,-9.415125487822852,-4.588142862689277,forward,forward_1
2081,0.2710015183892101,-0.8473892745241522,0.35424189245998855,0.9278572930841372,-15.184255015557877,-4.065342681256753,forward,forward_1
2181,0.2706749898485839,-0.43990299087166784,-0.7626660414844751,12.169390732894032,-12.730215858096486,-4.959014877544976,forward,forward_1
2281,-0.11554578466890379,0.7600313090667128,-1.883269907337427,-4.049357050391161,12.829394473713302,-4.184993081363389,forward,forward_1
2381,-0.7828367228537797,0.806784876935184,-0.3830857096284628,1.467093897867474,1.1880481201521895,-9.956045734236596,forward,forward_1
2497,-0.7610035881649703,0.8311332823805511,-0.04969079036414623,-3.59540176069778,8.740928613908295,-12.116085375290313,forward,forward_1
0,-0.37778884532935914,-0.5793534010075032,-0.22766893794536588,-4.9970419557490215,2.0006945293684923,-6.467187667515022,forward,forward_2
115,-0.25198691171985116,-0.7885032972481101,0.40894729611575603,1.2713958513767973,0.42041292437053557,2.9042508631593704,forward,forward_2
215,-0.5091945902952925,-0.9767911688543855,0.11381401070654391,3.969832304111056,9.596128062149129,7.070715989182043,forward,forward_2
315,-0.20920633913557976,-1.015961222791299,-0.4307201519846916,8.0910659964592,7.300519411354414,10.630904282726998,forward,forward_2
415,-0.0013132745556533336,0.07684862720705568,-1.256907940787077,19.691204858262275,6.78034415699729,12.700587351250617,forward,forward_2
515,0.04759838466215879,0.6472045558318495,-1.0097481204301118,-7.972735530409667,-5.831646676094975,3.7935357301229184,forward,forward_2
616,0.3989834629189223,0.11879516011998056,1.583578520232439,6.154245902104786,-1.190909969414425,8.651335315017944,forward,forward_2
732,0.26337971827387807,0.1546890419304371,0.08721534211635588,2.030048761430503,0.058785036947919665,3.518112620710385,forward,forward_2
832,0.21841062266938388,-0.08509192022159695,0.14624270062446593,0.1529218256989295,2.387989734083487,4.25181495644774,forward,forward_2
933,0.1977362660942599,-0.5371146802149712,0.49186815590858457,-0.5743787284758456,-3.303610529826135,7.089772643853201,forward,forward_2
1049,0.15379903428815303,-0.8500764677815139,0.4509662366777658,2.2614005021103516,-5.83983052338112,-0.014118054375269248,forward,forward_2
1149,0.37302141173183917,-0.6238871008694171,-0.5101777195811271,3.229591556347295,-14.5096184482155,-1.686899310477122,forward,forward_2
1249,0.28676607375405727,0.4841427492883056,-0.24131109432876108,-0.6897670371795419,4.799371158526975,2.8206764550316827,forward,forward_2
1365,-0.4231237055063247,0.683406846004352,-0.7543874579608439,4.610016970393065,-2.079780222551012,-9.849705665275021,forward,forward_2
1465,-0.33113881090059877,0.21149960117191074,0.2685644274353981,-5.592790265064575,-5.863273013273073,-13.438503913705869,forward,forward_2
1566,-0.055977012760471546,-0.29124183092862366,1.063544008025527,-0.14658331676766512,-5.97330351882057,-2.0200903456206243,forward,forward_2
1682,-0.16214381491579113,-0.5606248812705278,0.2782102076590061,-5.552428969711677,1.9876702123949241,3.4117774609472766,forward,forward_2
1782,-0.43007717790603633,-0.7656082324162126,-0.06946458137035369,3.1335266532183583,5.09762887099533,11.29684601925595,forward,forward_2
1882,-0.5580290195584297,-0.8144147872917353,-0.4564700947910547,5.734699397902637,8.390293168902874,4.421978874334853,forward,forward_2
1982,-0.1859424409912899,-0.47124490846619005,-0.6750918029278516,9.293484941346803,-3.7689636976969743,10.627871678735513,forward,forward_2
2082,-0.06771160022318362,0.5084544029198587,-0.640803164356947,9.456817816290256,8.292565114711039,10.570460523666972,forward,forward_2
2182,-0.1085880562191829,0.7829730625845491,-0.2663070038974285,3.083988571828725,12.991783928777647,13.025849497263087,forward,forward_2
2282,0.5432188423089682,0.650339785117656,1.524272929304838,-1.3062512672067246,-5.389505906118424,9.430940790846016,forward,forward_2
2382,0.834264200817421,0.9261221811078488,0.19434885214567182,-5.275322218668736,2.8839201647645925,22.47413128463812,forward,forward_2
2482,-0.42488249533977357,-0.6231465116351842,0.195448922342062,-10.587526605081894,-3.923823296088204,7.613128631929435,forward,forward_2
1,0.3771289566485211,-0.7341135354127735,0.3108627694606781,2.209355100965089,-0.6343498171009675,-13.353742973653302,forward,forward_3
118,0.3760134696872905,-0.6576900748152286,-0.3817114986658096,10.384745118813386,-11.93513231983552,-6.683168067467757,forward,forward_3
218,-0.3646021776285022,0.11298245525322854,-1.3863824619621037,-3.403686888431985,-3.964090249453191,-20.9778246676905,forward,forward_3
318,-0.4505325945008546,0.6602248539898544,-0.7846867346346378,-5.7926859964087525,-2.498186512048592,-24.276455989611694,forward,forward_3
434,-0.5451968643836677,0.39113077665716406,0.11908815171718597,-9.514979438393853,1.1572257175837435,-19.09943214593049,forward,forward_3
534,-0.3247123215170577,-0.5126625221341848,1.2629723553925751,-3.796287442584787,-3.011909372074169,-11.959661236692327,forward,forward_3
634,-0.3685651629753411,-0.7692154631279409,0.43016894784271714,-3.7587269516784176,0.2447228765167801,-9.101422583206983,forward,forward_3
750,-0.955369391445443,-0.8094863909788429,0.2266238128066063,4.942022647550454,7.191572771450833,-4.282419753458098,forward,forward_3
851,-0.4858392875405028,-0.4690830542571842,-0.35193770717084405,9.821417583053767,1.0871060350690405,-4.106096712486926,forward,forward_3
951,-0.0801181503970176,0.04916384388059378,-1.0327847126245497,14.413092507317588,5.1620106609986935,2.9013612662536317,forward,forward_3
1051,0.06083818905605003,0.7471703661888838,-0.8559703481256962,15.020282664153381,0.32295199460827156,4.500568311585488,forward,forward_3
1151,0.32719968135338273,0.7357667825125157,0.6416992364138364,10.189303524581701,2.89190636345163,17.302081526219975,forward,forward_3
1251,0.09414132372094318,0.6199507843337952,-0.4890811555385589,-6.5728724652030985,2.80358860238878,5.736713449934145,forward,forward_3
1351,-0.01847063598576933,-0.06852876182496548,0.8057026346564292,-6.628270848900603,-2.2268602354775973,-3.0942630973311283,forward,forward_3
1451,0.06445446159075945,-0.3803106919571757,0.540232666105032,-9.413458921665368,-2.0216237230892924,-9.404630902163127,forward,forward_3
1551,0.1433887724980712,-0.5587324916526675,0.29240824435949325,-1.2534346950154853,-8.624525968751998,-7.255899493054013,forward,forward_3
1651,0.11668296287213452,-0.725712129227072,-0.3295131093949079,-1.8720504776722409,-12.275065712185176,-4.34919680542602,forward,forward_3
1751,-0.21916606241287662,0.6108057932391763,-0.961397638759017,-0.26320667575173046,8.244715370706867,-6.110163861201523,forward,forward_3
1851,-0.3230662713430822,0.9020058308526873,-1.0214736295372246,-12.09971853449167,-2.0975199313728274,-21.7244770420942,forward,forward_3
1951,-0.2704233166424557,0.45616175949424503,0.31319092014729977,-10.17561497171135,1.7928149472148038,-23.304494457509495,forward,forward_3
2051,0.050905011292384006,-0.2996767740577459,1.1352303570985793,-5.496178946802037,-5.60499752065868,-10.93375572429901,forward,forward_3
2168,-0.36334326360858976,-0.34788572836630044,0.09377075510919093,1.3899158551757975,0.4704058003093563,-0.3431455022502672,forward,forward_3
2268,-0.693436657109484,-0.5066307676892727,-0.2689250774413347,-0.3155725621794546,5.935732355743623,-1.138475140764766,forward,forward_3
2368,-0.26055773792201653,-0.42225086819455027,-0.34620822360813613,7.05118079438216,5.010601161911967,6.98378689095482,forward,forward_3
2484,-0.3690547365905717,0.2608326641395688,-1.0330559307813645,-2.0357246486307834,6.045284321162396,10.311816627724221,forward,forward_3
7,0.3296106149526313,0.5285219161756336,-0.3049491615027189,-10.086710668153525,0.967943673322942,8.486680798470093,forward,forward_4
120,0.2987693038240075,0.5035315595649182,-0.13273790688514708,-1.6612930380004498,2.7748774753258085,11.756480184357372,forward,forward_4
236,0.47237223199568684,0.12090279992371797,0.5116296719551087,-5.7269368879109175,2.9934108719242474,7.047507860155985,forward,forward_4
352,0.3312318594789132,-0.4775288110412657,0.15336334628462792,3.5148315685878404,-1.7238412423767822,7.866504744474813,forward,forward_4
452,0.27564989218432456,-0.4533130920648575,-0.7846417264491319,4.289465520473789,-6.653140848329088,7.552984547419242,forward,forward_4
553,0.358498965382576,-0.43385143574774265,-0.5465460870355368,6.809090715666581,-8.287094133185859,-3.3861397055673987,forward,forward_4
669,-0.12622503612609579,0.10863996906951069,-0.12707213620841504,15.115111303042545,-16.77834432821069,-10.36907581108373,forward,forward_4
769,-0.3012388357426971,0.38914924745112656,0.9673854809969663,9.300731772056185,-2.319580693790755,-21.241007224336723,forward,forward_4
869,-0.3676927275223657,0.29633520854488016,0.2561468444108963,6.765670776225988,-1.1093789617873349,-2.4228488851731167,forward,forward_4
969,-0.3741166596226394,-0.4258208356358111,0.6644020666092634,-4.327385450085231,0.19757229308761023,-0.17825155555549535,forward,forward_4
1069,-0.4518719168132171,-0.6280449512012303,0.06373685137331485,4.9029390244591715,1.6350759972015905,5.850849326059643,forward,forward_4
1169,-0.2858099420730024,-0.13765446662977338,-0.9075690179377793,10.954782461658894,10.95726608919584,11.88783325983318,forward,forward_4
1269,0.4375096659943461,0.6619754239842295,-0.7826338937580585,5.0536330612303395,22.51300189120466,19.161177056027405,forward,forward_4
1369,0.3356097457695752,0.8810589044138789,-1.1888362750798462,-6.9954584035859035,9.806677181051233,16.195053003280773,forward,forward_4
1469,0.4927177950078621,0.19681392708495257,2.124452406850457,-5.220493728880105,-4.1507439515440065,16.02626024586954,forward,forward_4
1569,0.11235215799305587,0.28831439917460083,-0.18570026626586913,2.4216301232930926,3.3776645080244707,11.242565652148212,forward,forward_4
1669,0.3719391329204663,0.06976546401306986,0.2926321162432432,-7.040992286574617,-1.845601210441601,3.7230742179845975,forward,forward_4
1769,0.37210455261524766,-0.4027762062653899,0.334699572122097,-4.395108056366376,-6.206589483696002,-0.647251350752034,forward,forward_4
1869,0.3482857240019366,-0.5404654519475997,-0.057929041877388954,-1.7309371685941906,-10.85026263811113,1.898774873460385,forward,forward_4
1969,0.1626379368419759,-0.3946861310511827,-0.11335399197936058,-4.856629914999662,-16.389194300249212,-4.541809420680849,forward,forward_4
2069,0.1884388609169051,0.18944018344655633,-0.4310819710344076,5.657107595157646,-17.713188904815752,-12.573445941171768,forward,forward_4
2169,0.06488313533160835,0.29143881480544803,0.9751163675099611,12.301211676327984,2.4672606961472434,-13.483419237687873,forward,forward_4
2269,-0.05282893769282382,0.5589923116326332,-0.1821060411661863,2.4015391218495,17.720237660039203,3.4675751972678146,forward,forward_4
2369,-0.3501772733695805,-0.24967041493840514,0.5640846663355827,-8.72320683433305,4.02474574437749,10.226943843323996,forward,forward_4
2469,-0.3240693839710206,-0.440730308541283,0.029153029248118398,-2.9186457002785837,9.03829882867137,10.054094807319421,forward,forward_4
6,-0.5861850736584514,-1.0459470496017484,-0.24263795901834964,9.150230261242248,3.2525587077616978,-5.933588103231061,forward,forward_5
106,-0.15921123206261545,0.07597031000256538,-1.1085200448274612,14.927002770658516,0.5619013068835547,0.24797028462157739,forward,forward_5
206,0.13218582596033812,0.45579146487712857,-0.4174006516844034,5.77369977806341,6.355718126486767,-0.45334985745648243,forward,forward_5
307,0.4290853173244744,0.08678513400554656,0.8131734089285135,-10.093744909224993,1.2109453688493053,3.35593895693513,forward,forward_5
423,0.47829742079358545,0.13174524258598685,0.36247605232000346,-1.8869345270907565,4.381568913884118,-2.393226995073006,forward,forward_5
523,0.17940858224313705,-0.18243001242354512,0.47782501750886436,-3.9341859737195826,3.203847292705048,-5.626766187317157,forward,forward_5
639,0.17849311136603355,-0.5527921418182552,-0.07392039173543453,2.3359306725598845,-5.423519394411441,-2.705942723910397,forward,forward_5
739,0.07631130545996129,-0.7277345749653875,-0.6519739621907472,2.5846549993936607,-4.856161620154692,-5.547906103820659,forward,forward_5
839,-0.17382274493481964,0.12309826414138078,-0.9461644137918949,-9.827483644810385,-15.123059935689147,-16.171193444962626,forward,forward_5
939,-0.4239009004238993,0.33716208977811035,-1.129234916076064,-3.8938852962955686,-22.595551557513435,-25.801189853884907,forward,forward_5
1039,-0.15427996793920173,0.4073977285861969,1.6326321817368268,6.622404570177208,-17.0474981777388,-31.419863974582892,forward,forward_5
1139,-0.1479147254899144,0.26525742177926004,0.37110067280232906,12.655503833860301,-5.8915593879470345,-12.744293731749528,forward,forward_5
1239,-0.4994317960958928,-0.25408888896778226,0.8947697421193123,-2.810941727917122,5.580394752381471,-9.192657688819073,forward,forward_5
1340,-0.625773791398853,-0.34081396334916353,-0.4131394871085882,-3.190649019351056,10.788624449719995,-0.5209764142024249,forward,forward_5
1440,-0.6932017523750662,-0.8636443898849189,0.5273983189731836,4.658981315892418,7.8120519150905325,2.0549932526096244,forward,forward_5
1556,0.07375526430159807,-0.596227525049448,-0.5056073429256678,2.321769342532921,-12.29304277008065,7.852901568969086,forward,forward_5
1656,-0.03862593712285161,0.01406783444955945,0.10062661235332489,11.3129490439979,-0.6279879227759236,7.582928950514224,forward,forward_5
1756,-0.1655027699548751,0.6976506946079433,0.5512064800620079,8.582551041207685,10.679935649457581,8.402958900945016,forward,forward_5
1856,0.3134726962307468,0.731274585659802,0.09068506405353545,-12.559067539195246,3.0947207200055193,4.33054825455777,forward,forward_5
1956,0.2350430103773251,-0.017970102585107086,0.4784902034193277,-5.833142487523208,0.08057880988768164,2.2152036638853243,forward,forward_5
2073,-0.19404501036088911,-0.34553996895775196,0.19641747511327265,-1.7341645396987275,-1.8924648458843512,-8.357576562778512,forward,forward_5
2173,0.16924042211323975,-0.5852011041224002,-0.22204233023524284,0.051768618401318287,-4.53756915386674,-7.622122283519049,forward,forward_5
2273,-0.07989694539438932,-0.3414038920663297,-0.35773791788220405,6.7918829078263805,-15.792227229053637,-2.838294714552319,forward,forward_5
2373,-0.34048473139479757,0.5950885841473936,-2.3515181182056666,-17.924808655870255,-7.754799561920193,-22.34994649269624,forward,forward_5
2473,0.16483250601049512,0.531606876578927,0.5323357753753661,3.5956647229808256,-2.051786478794303,-11.57089626064531,forward,forward_5
7,0.5210981959156692,0.016409136878699063,0.261440274643898,4.837910927805596,8.63261376650294,13.164568931758753,forward,forward_6
120,0.0335863720530644,-0.35762890454977747,-0.22874270465672014,-7.212420216345005,9.962501970549551,11.091635546963856,forward,forward_6
237,-0.1209394786722958,-0.3997058589093387,0.18263970965147017,-3.1107163827114546,1.6799505534919859,9.91977486842289,forward,forward_6
353,0.5750931862797588,-0.50466129424721,0.23142273752093315,4.531137250102704,-7.6129476319164295,5.193720241107301,forward,forward_6
453,0.48951465158499774,-0.3598822364345193,-0.3400198903620243,3.014842297992455,-8.648371012918158,1.0910478012720783,forward,forward_6
553,0.17166286348719148,0.48350715479850764,-0.27515315817594527,4.070760301929042,-17.79822475998241,2.802695982041624,forward,forward_6
653,-0.5020092819010838,0.3927562589671463,-0.3030231618762016,12.509521346955973,0.38764471830142916,-6.863844500261166,forward,forward_6
753,-0.3121981097176671,0.14248612456992268,-0.13464870894253253,0.34466940816754693,4.148120305129075,-10.168048829658268,forward,forward_6
853,-0.5610083276301622,-0.2529953946426511,0.7594336354345083,-1.17376373999846,4.078849807227276,-2.7598420945284947,forward,forward_6
953,-0.7074579490035772,-0.6131451959721743,0.5323907204329967,-0.02114578542268346,3.288854546454557,-0.4849253951026283,forward,forward_6
1053,-0.3740411832336336,-0.6704008686326444,0.12942951298952102,6.1292657658759335,6.8782950461107975,4.678163902176398,forward,forward_6
1153,-0.22675989680904893,0.06568097117841243,-1.0755763911247254,7.407743989813506,0.489641160476846,13.323010537482832,forward,forward_6
1253,0.016215148676559328,0.2995452566325664,-0.6780927383095026,-16.567542492309293,5.777516146262155,9.465689378248456,forward,forward_6
1353,0.18555815438143908,0.29031346403732894,0.385694430822134,2.6272617194362002,1.41402268768624,16.94822479324725,forward,forward_6
1470,0.23442831254508345,0.44931788494884967,-0.06424187828600406,-3.9499176069254145,-0.5484542118725333,11.442610793880483,forward,forward_6
1570,0.1333280182654038,-0.20889058771729468,1.0020160648733376,-1.0331499952251728,-1.3677114437926148,1.090729663867144,forward,forward_6
1670,0.3968752385932952,-0.01999605545476079,0.27249124549031256,-4.209002903843277,1.73709020854102,0.3980588891558474,forward,forward_6
1770,0.12960771910063923,-0.40459326562471687,-0.5582219117820263,-35.29172746033387,13.184098150143111,10.533878030472383,forward,forward_6
1870,0.2108957900598645,-0.22634419214762747,-0.18183540753126143,5.854710090487992,-10.436173028168996,3.8169129063309333,forward,forward_6
1970,-0.1363531747728586,0.03184562933295965,0.051316345739364624,0.9768172629935522,-19.722389794465258,-12.910522606901067,forward,forward_6
2070,0.13186173597197048,0.5891562714889645,-0.887436915013194,8.855054244750038,-3.4652473834213096,-11.446006251671626,forward,forward_6
2170,-0.06265264546633698,0.23351437603794037,0.4996545720010996,-2.519884742381253,-6.315894281644185,-16.647346422571722,forward,forward_6
2270,0.20065264673130587,0.38153614209890363,0.4751525834292173,4.876146326779327,-3.326418665898923,-2.886266334744492,forward,forward_6
2370,-0.2909816456224769,0.0670667264483869,0.16022621779143809,-3.1673745094240027,2.8845686058489206,0.09780505390255625,forward,forward_6
2470,-0.1873348999966867,-0.19841960871592162,-0.01582651468515396,-6.087658387886331,6.740165569204691,8.113875413192458,forward,forward_6
6,0.218989445470646,0.4194138912029564,-1.0152478868901729,-10.126481152143217,-0.5863938849995444,10.694560792017871,forward,forward_7
117,0.6496950574733317,0.021468319964408872,1.1986515666514634,-1.4904219820908293,-6.548913869141987,18.691955012878577,forward,forward_7
218,0.28507622097097335,0.32421295716017484,-0.15002280368506907,-2.5665797575288685,9.325680745546949,9.032845776392762,forward,forward_7
318,0.552264939606376,-0.17025646728798746,0.7080430554151534,-5.082389865183385,3.278163806299606,7.04623573742307,forward,forward_7
434,0.10272095428407192,-0.37675453384555874,-0.05198562330305576,-5.825140067136892,-1.3476637713615696,6.4234531124857845,forward,forward_7
534,0.14812782025132326,-0.4805713936075568,-0.05240180288851261,0.19363231447314425,-8.702335483776784,2.40883739242107,forward,forward_7
634,0.05717657954227179,-0.5152791343733668,-0.38276889876425263,6.2567649071125615,-8.749258029601124,-3.539526971305668,forward,forward_7
734,0.21326701270323245,0.5194854269567877,-1.117095565471053,1.0154403819243876,-0.667936365210006,-11.505877128615019,forward,forward_7
834,-0.25084756895899774,0.6026574119664728,-0.044371056646108624,7.672858636221196,5.508708501947602,-8.091153935144764,forward,forward_7
934,-0.19925702765444292,0.4948142923630774,0.21705168234109878,1.1257256321835851,8.760243535107444,-4.203408978913036,forward,forward_7
1034,-0.4061370244679972,-0.08880743361338972,0.22865444185137748,-11.360169556824784,2.3185926642386305,-0.28502123274369334,forward,forward_7
1134,-0.42721196120064703,-0.4437918150037527,0.470682744538784,-4.278675102245638,1.4450471144437305,2.3734284111032546,forward,forward_7
1234,-0.465473083599098,-0.6300544643927365,-0.3205968124896288,-3.6840973165990962,1.5857187023815513,0.009674589433352827,forward,forward_7
1334,0.16258823421504348,-1.0192978198681026,-0.6573059708684682,-0.4498368990672745,-6.6157421475286835,-1.061247045593078,forward,forward_7
1434,0.4512509353706613,0.24383842084929347,-0.09291443054080009,28.768025953852515,-0.34447786938609565,7.720371993408744,forward,forward_7
1534,-0.220487319345586,0.6946615957945584,-0.12272738500237464,0.4847547470950837,4.648295911822756,11.680794858164461,forward,forward_7
1634,0.3031409613032825,0.5144958750411868,1.2688222504645585,1.2134922823577796,-1.1544712303575242,14.809748913176907,forward,forward_7
1734,0.21039397801756857,0.19586846292838453,0.21194997528791426,-10.61124955961664,6.770402389773514,10.89773842925824,forward,forward_7
1834,0.16582190064033492,-0.28267303228676316,0.13905308138132094,-8.082093689210742,3.434764249155543,-3.1751622057382867,forward,forward_7
1934,0.2708450126532465,-0.4626552862320095,-0.21261457667648792,2.2293276413152645,2.641410883188705,-3.030059959463243,forward,forward_7
2034,0.27171571280686185,-0.3811033036395907,-0.09446575163602829,6.737152602007068,-4.582079362253598,-3.0828989432126965,forward,forward_7
2134,0.1927831371989101,-0.11026201731339097,-0.6226052443653345,-4.429405424396772,-20.454258224410466,-8.827192195578263,forward,forward_7
2234,0.09143643954326398,0.3297279211893678,-0.4936655607193708,-10.295527480327387,-17.69974367743458,-13.52454380668052,forward,forward_7
2335,-0.7459132057346403,0.5725388986870646,0.28642916994988915,8.930835193591328,2.3844986536439645,-16.849380003126115,forward,forward_7
2435,-0.4669413660533726,0.5415056086502968,0.13088789510428905,-6.298797037491174,8.026852826750972,-8.916928928441182,forward,forward_7
16,0.12230289424629881,-0.0819510649126023,-0.03451309497654438,-4.734190663277544,-0.8294464867795655,0.4872652685018865,forward,forward_8
116,0.025566603862401095,-0.1895715547412634,-0.4003530707716942,-4.563809033110637,-0.9750289273697724,5.507415461760354,forward,forward_8
216,-0.2033563709983602,-0.32425372756198045,-0.06999883437752723,-3.605852803901546,0.4635552272935393,2.1257860289226906,forward,forward_8
316,-0.2053323472464457,-0.3146560242637992,0.18227555251419544,-4.377913908904516,-4.188433362270961,-4.087461395110193,forward,forward_8
416,-0.25991321120709177,-0.6421884812355041,0.11476385877728462,-6.4729280146255945,-1.0941867000825223,-5.675278886557642,forward,forward_8
516,-0.41983277420215304,-1.1678943901423364,0.19909283180236814,-15.049502213422695,4.826134401016024,-2.47879752598563,forward,forward_8
616,-0.6054093410231173,-1.3393527075007556,0.17823124555945397,-7.647794403288189,3.101195312451868,0.6748305874034877,forward,forward_8
716,-0.6381794647898524,-1.130956625302136,-0.15408932247161863,10.7087786845489,4.60375454069781,2.101883781922231,forward,forward_8
816,-0.199389440128766,-0.8618426742251962,-0.11267185493409633,8.91844181534234,3.8265229824931413,8.567941266573028,forward,forward_8
916,-0.0824067362582311,0.38742775742076335,-1.6942203306436538,-1.893478702089275,16.102609807959233,9.481293799180996,forward,forward_8
1016,-0.08527925948724151,0.5658974148459732,-0.1478612417370081,6.020114220297253,12.640600361091334,9.61422635590237,forward,forward_8
1116,0.23736980935707688,0.24846564225852488,0.20985680240094662,-6.578611958540025,-5.810098283037231,0.651755006736011,forward,forward_8
1216,0.3348177916742861,0.019403934780508277,0.5300432805240154,7.430118835760821,-7.529084007966074,-6.6188626902057335,forward,forward_8
1317,0.2101503785200417,-0.13823833093233406,0.5132581499397755,-6.337268504878094,7.2683099467759265,-4.59508916507518,forward,forward_8
1433,0.10445413475222885,-0.49038069382980465,0.26936697598993775,-2.1323585918949473,-0.06162095283565012,-4.552200272842554,forward,forward_8
1533,0.13836407620385288,-0.34471140917912124,-0.3344184170931577,6.668522861226781,-16.867927381817285,3.6042404523706,forward,forward_8
1633,-0.32063882500045,0.10869096860438585,-0.7444114228695631,-4.992845658277695,-23.066779968730955,-4.196251367549686,forward,forward_8
1733,-0.2277664983020164,0.28809600718356665,-0.7391244223773479,-6.838908760261918,-15.539703182607218,-16.09980430775765,forward,forward_8
1833,0.01891188608040102,0.06507511423975229,1.0687889229416847,-3.799996662190927,-11.56850910953039,-20.468540149964962,forward,forward_8
1933,-0.14086205789889208,0.14596658709682522,0.6045873571157455,11.039012354503493,2.294921789896305,-2.7023737366256535,forward,forward_8
2033,-0.523704359826073,-0.5683343596693128,1.5125520963728427,-19.518812591158444,21.014362764655484,-2.258118809657572,forward,forward_8
2133,-0.3606047054901719,-0.3957835708990693,-0.3815566003650427,3.7814898377479547,1.1412257860095771,-2.352616824702226,forward,forward_8
2233,-0.5588845404092222,-0.4396843066196888,-0.4863496847480535,13.920526585132947,5.934003464109963,9.736124742019587,forward,forward_8
2333,-0.36678949507232755,0.07103387651368975,-0.7487094123244286,-1.2271318499651778,2.1153420293515066,3.314815028272718,forward,forward_8
2433,0.5581666379308328,1.0442279707241804,-1.1303449231445788,-2.781567645617836,4.420874091236603,12.237043756623008,forward,forward_8
8,-0.33946824782863255,0.054047305073216555,-0.23880700255334375,10.627332093791082,2.1778038958678616,1.2804491603999435,wait,wait_1
120,-0.18967026587538421,0.18660247580260036,0.08992986177206039,-0.4976488635875984,-3.1883205651743163,1.8450518071002382,wait,wait_1
220,-0.047754287609923625,0.05854205920919776,0.1857189709663391,-0.08728493507472346,-1.743294795071742,2.8439018729740764,wait,wait_1
320,-0.03394629140663892,0.06449921404793858,-0.16807459320425985,-0.02303117109765821,0.5187607648686963,0.5509862377030511,wait,wait_1
420,-0.09303606589278206,0.007417948106303811,-0.26072306628525255,-3.4901310432281356,-0.2543336196896492,0.42235163087776134,wait,wait_1
520,-0.062075968956388526,-0.04617145713157952,0.005300444495677948,-3.772126502169513,-2.1089762930450546,-1.1397582558333763,wait,wait_1
620,-0.08468976916149258,0.0006555412992835045,0.1874012249648571,-0.039504880344428166,-0.021336923997738035,-1.1332544216396432,wait,wait_1
720,0.010707765165623277,0.017230317068472504,-0.11448036566078662,-0.07357715895711776,0.9221993351304278,-0.843515502531028,wait,wait_1
820,-0.09193776752837002,0.0821002641249448,-0.3444038045346737,-2.952839761697783,-2.0446768921985545,2.2492175790651645,wait,wait_1
920,0.030839694560272617,-0.14850246224999428,0.33158056331872937,1.7115491430265806,-3.3852022621038147,4.166724032880898,wait,wait_1
1020,-0.04984738743165507,-0.08127506534717976,0.015776245802640913,2.0857301710917393,-0.206999341524403,-2.9803043792372277,wait,wait_1
1120,-0.029700927188154307,0.16760544132255017,0.0892062236726284,0.23619407799712336,5.47257210548318,-2.9670563735683415,wait,wait_1
1220,-0.20499336108304558,-0.041147856815904375,-0.03909399302601814,2.6218857202291654,-0.39323240001188137,3.958722147652384,wait,wait_1
1320,-0.22434468889348208,-0.1683050409592688,-0.0326648367613554,-0.09945850663044148,1.166316485925619,0.07276256551710118,wait,wait_1
1420,-0.09884961100975051,-0.018183745335787534,-0.025723054799437522,-1.8011496989929234,1.8856890847842869,-3.7671588202087984,wait,wait_1
1537,-0.07908619526708498,-0.015068024468049406,0.05989537351429462,-3.631292270352082,-0.14326679301816114,-0.2729389749474846,wait,wait_1
1637,-0.059919028384517875,-0.032466610775515437,-0.13025135076642036,-2.3742710856921048,3.2465513429432598,0.2833440744569114,wait,wait_1
1737,-0.11199181851437315,0.041526042478531595,-0.17802724741995335,-1.2124712757985685,2.7211418158043794,1.9026962558176186,wait,wait_1
1837,-0.17079393516555427,-0.0702092622578144,0.015177110865712166,-3.7044418888156256,0.7386684168724829,1.0041184896014452,wait,wait_1
1937,-0.06274776727072894,0.04430230225883424,-0.037521044620871545,-0.6550197304375714,-0.9628622260238641,-0.12070200911498108,wait,wait_1
2037,-0.11022964941374958,-0.01858472735211253,0.07625204955339432,-1.5748174003010935,1.23394763170491,1.1380040711554467,wait,wait_1
2137,-0.08807574007166549,0.018860183292627335,-0.1964250738978386,1.0353215684944137,0.9005669520902339,2.1932909229240423,wait,wait_1
2237,-0.09671227018749341,0.04686718431077897,-0.21516543020308015,-0.5782295144247048,0.9358816981418443,-0.08252415982109235,wait,wait_1
2337,-0.007821761400531977,0.09406666931584477,0.02758534153997898,-2.936749757003937,0.6851472679796745,0.36934808225799304,wait,wait_1
2437,0.012721333477739244,-0.06354176719263195,0.026184827092289923,-1.2375154450508896,-0.8606050627212231,1.3231801045080127,wait,wait_1
15,-0.27923958723936226,0.42377435143478215,-0.2784878555566072,-2.01828568157586,0.7104263850672735,-1.6313866278327258,backward,backward_1
115,-0.14703323908080346,0.07649345709383487,0.11254442916214466,0.9962274866759648,2.7166595041615587,1.0681646398401259,backward,backward_1
215,-0.18275265024034304,0.23018450096286833,-0.06871814691722393,7.225611019179592,4.349164788914286,2.121317804545033,backward,backward_1
315,-0.155107669201307,0.6195689454093575,0.16417057150304318,2.157698807159106,4.773991029344854,2.3528725299092783,backward,backward_1
415,-0.348537141479738,0.5412970804661512,-0.24471651885807513,9.352442280488706,8.759137044461902,1.0138645292168187,backward,backward_1
515,0.04339965433068573,0.36891163832545276,-0.3941203138619661,-6.187366343163824,6.453674138242151,4.539248953515741,backward,backward_1
615,0.06933821504432708,-0.26988851564601063,0.4645090243399143,-5.8848636681263065,8.32652737658528,5.55798917058289,backward,backward_1
715,0.20893471911996603,-0.4119492544107139,-0.7059604039222002,-14.911129411027407,-6.385856763086272,-1.4972079884746485,backward,backward_1
815,-0.07983268451914191,-0.13352430802248416,0.15750468387305736,8.064053452065446,1.6636071914686148,-3.599315032205374,backward,backward_1
915,0.03843969383575022,0.013101838961616158,-0.2665735458791256,1.830306282455827,-8.244319219735008,-13.306475503275877,backward,backward_1
1015,0.6082591409636661,0.39631117496974766,0.18249357917904852,-1.5937753373944044,-6.936637241340576,-14.084693596928789,backward,backward_1
1115,0.446426912747696,0.26291896889433264,0.4834358431279659,8.929025193461275,-10.404068577748998,-9.231030545349851,backward,backward_1
1215,-0.0602192717064172,0.8277059382803738,-0.40116321811079975,-1.9102918530614958,-7.62573459981634,-12.644857276491544,backward,backward_1
1332,-0.34619342789780344,-0.465622465474531,-0.9412947619289159,9.58924664656034,-8.493497327261766,-7.6611815740614135,backward,backward_1
1448,-0.49133116295505314,-0.3318466669090092,0.32958383654356,23.453160354983993,-6.778082937495193,-9.54756968601857,backward,backward_1
1549,-0.26668498863065615,-0.42598070237264035,0.2260083112567663,8.403440429281503,-11.161930146354335,10.981728411708241,backward,backward_1
1649,-0.12679092638054862,-0.3816789115704596,0.2864320925593376,5.6982061240540824,2.860760273949549,11.681497513875327,backward,backward_1
1749,-0.4804113807402551,0.0925013196952641,0.1510942323088646,16.503509468840424,4.6069527767766685,16.171651067637015,backward,backward_1
1865,-0.27248892566906285,0.3553706042289734,0.08649228853881359,0.9430779427626874,12.827044888638817,21.440846606620248,backward,backward_1
1965,-0.10592852728688157,-0.09546908345967531,-0.26265783374011514,7.910264058939792,9.352140044617933,9.571757093416876,backward,backward_1
2082,-0.19430114054642617,-0.14315423308983444,-0.05034779296815395,-10.12701561444577,17.923845599197282,-0.7408018904927598,backward,backward_1
2182,0.08458221713379024,-0.19144626257196068,0.1048217259556055,0.7128590529897088,2.3592542744715974,5.174556864730361,backward,backward_1
2298,0.13745125394156202,-0.13351517486795783,0.024227847805619238,-2.7142117351177553,-6.069975455011992,-5.416278540117581,backward,backward_1
2398,0.2752967678977176,0.15547800035104153,0.09764905784726143,2.1207754448362515,-4.8286598634616364,-8.0145465334139,backward,backward_1
2498,0.18658921446222812,0.27079335553124545,0.22562661846280097,7.184658058689841,-7.404893239608671,-4.365170483460564,backward,backward_1
10,0.028673803496966136,0.01606704544275999,0.07470832724273205,-2.890922816211148,-4.437306672606008,-0.05113127637439147,backward,backward_2
110,0.09742628194205462,-0.034545828202366825,0.10365326669812201,-0.8547693597665348,-2.3916389760909778,2.2445909796761274,backward,backward_2
211,-0.10726141985845751,0.39726182675808663,-0.4948299283236265,6.3292485821320295,1.8596009638060116,7.071344366585683,backward,backward_2
311,-0.18001438438287004,0.691711075425893,-0.07830196782052516,4.731963167834473,-6.103117667299009,7.018978159992842,backward,backward_2
411,-0.576610203246586,0.5816359589867294,0.24020167178213594,-7.085056825118131,-3.0493716790112195,-10.61326788051638,backward,backward_2
511,-0.11248290823325514,0.4578136183544993,0.5193266561985016,-0.8482275860063964,-6.617289612262515,-8.544015113910472,backward,backward_2
611,-0.228368354918994,0.7148878067433834,-1.1731886240929363,9.689557366032087,21.500298280703333,11.888389920250537,backward,backward_2
711,-0.12900454730940983,-0.1294467563852668,0.4791010287940502,0.20330018043903286,4.466746068589232,9.969727456917779,backward,backward_2
827,-0.02635727931605652,0.6493528199069202,0.3697100952267647,5.03717657419884,10.68087906933669,22.721143368424336,backward,backward_2
927,0.06149799553849734,0.5149170230627059,-0.5859440314441919,-26.03497186124881,-10.886012702000622,39.274052180436875,backward,backward_2
1027,0.008128909387253224,-0.5205410004243254,0.16842647538185118,2.4948226438823604,14.833828745095788,30.354501313128058,backward,backward_2
1127,-0.2762185589177534,-0.16295812697336076,-0.6790203745484352,-7.458155054756431,2.5602257606100522,12.029955836082806,backward,backward_2
1227,-0.40261856801826507,-0.22196561173722146,0.6633370677262544,8.202497117673373,0.9565667125998164,3.1680528325859494,backward,backward_2
1327,-0.18843597484007477,0.10165580927059054,-0.20408757134974,-5.5055371597386005,-8.764559360889246,-16.768011959543752,backward,backward_2
1427,-0.035214977901894595,-0.11521978585124015,0.633850276479125,1.6233780175874744,-7.00679993270271,-15.12196369032736,backward,backward_2
1527,-0.2842198416036554,0.4794837445013225,-1.0680249528318644,-7.453449054418292,-2.2610024301477867,-24.96473415227388,backward,backward_2
1627,-0.49025809036344287,-0.06837254834994673,0.14084347192943095,-2.3026403305452425,-3.049288649524122,-24.712285237908333,backward,backward_2
1727,-0.8793664212822914,0.1268107087932527,-0.7768348520904779,1.4544526050959554,-3.4797717806913417,-25.463286735266035,backward,backward_2
1827,-0.4697141187023371,-0.388986165843904,0.26220015310049055,4.365785200485865,-10.028072640355319,-12.907038356650714,backward,backward_2
1927,-0.16328423538887873,-0.2843096935778856,0.3243868524223566,4.328105181269021,1.327856009325121,2.2266677095203673,backward,backward_2
2027,-0.4207480989487841,-0.2659201965369284,0.172608144980669,-3.700388598430046,4.537391995835143,7.955893991463709,backward,backward_2
2127,0.09058341204365715,0.13896321114078164,-0.5161006798893213,-3.86446852531397,2.705968977450019,13.0858296572332,backward,backward_2
2227,0.49398660936728117,-0.16975670107230542,0.36863048329651354,5.272667836402539,-6.715771121697167,13.639974003653736,backward,backward_2
2328,-0.0618148018361302,-0.11294161178618668,-0.4830646717280149,-10.45007331690362,-6.426565117426371,7.205044465815037,backward,backward_2
2428,0.27946345912311227,-0.015962123763561247,-0.07433598679900169,4.025348935458566,7.345900895747271,-1.525082203920882,backward,backward_2
7,0.00917515790401958,0.22432956438958643,-0.06239245102703571,4.82657366755702,6.332763141346824,6.8074211613013365,backward,backward_3
119,-0.04634390935534611,-0.0439374875344336,0.12246902632713318,-4.456067921595563,-1.9760778872695315,-1.5950167242760542,backward,backward_3
219,0.11293598576299846,0.2218941539362073,0.02488134327828884,-4.474285316772456,9.573935069988464,3.678815872823384,backward,backward_3
335,0.26533662449531253,0.08325316048711538,0.4045592902898788,-5.179758480670149,9.450446957341926,3.001197714464885,backward,backward_3
435,0.40944443198293445,0.6097907709777355,-0.4751549215167761,7.9824984320545544,-0.9753847375368477,4.4149582936417255,backward,backward_3
552,0.026751594129577276,0.2982556552134454,-0.18165595931112766,9.28488914827634,1.683061491215515,-5.682240129982354,backward,backward_3
668,-0.023549838946200906,0.590002074663341,-0.4768529576063156,4.862158953132787,-2.7212662533133205,-20.15679836341453,backward,backward_3
768,0.12973894426487387,0.48835137995928524,0.5013105225145816,1.2215050547495567,-10.200832883900684,-26.12053876362344,backward,backward_3
884,0.45403417288102205,0.8353807106919586,0.1618681397795677,0.8556089394259174,-12.79412252306571,-36.04182566517384,backward,backward_3
985,-0.32021040698792785,0.4625026529535651,-0.8617945242345333,1.6152570293860349,-3.0220084470922677,-36.19012273243316,backward,backward_3
1085,-0.08475245913416146,-0.1342298990085721,-0.3161953626602888,5.440302022975809,-2.306673984136958,-26.554556304242727,backward,backward_3
1185,-0.22417481221929192,-0.42895738009586926,0.5611790080219506,11.724995573604552,-4.385666600499303,-0.7551702606289394,backward,backward_3
1285,-0.5127104894617572,-0.16507935691103337,-0.5355629207283258,-12.251365809538878,0.03152644566148635,0.5326343731768731,backward,backward_3
1385,-0.6995088166300207,-0.8583861770957708,0.45928281412422656,-2.2251044499740806,-3.7606163527575722,5.564900468249297,backward,backward_3
1485,-0.5767256463197991,0.0406619729951024,0.004195113602280616,11.919920634780254,3.412858338383431,8.82484004918284,backward,backward_3
1585,0.05509213795103132,0.40673341945856806,0.32596681509017944,11.150620206862438,5.412708058728957,15.408985314724221,backward,backward_3
1685,-0.084716255309619,0.2303260283254087,-0.29611411314010616,1.4692743290382946,1.0826647045612399,27.619947994001535,backward,backward_3
1785,0.05755220792163163,0.15493234916701912,0.09770751003623009,0.8408581854179229,4.690760051666372,24.303284972671506,backward,backward_3
1885,0.30691045163832603,0.0357364992916584,0.06523965715169906,-1.3633151498446539,0.7983694995819777,17.663545382380804,backward,backward_3
1985,-0.015264423822984098,0.21928689404726026,-0.29661212579011914,8.345841444010784,5.852383557301957,21.592949796794557,backward,backward_3
2085,-0.3944882703915238,-0.12759279908165336,0.15343933413028715,-2.710955869317775,0.2640294467424525,3.880521604297616,backward,backward_3
2185,0.16701858134530484,0.14152473219186068,0.2345440844118595,-6.911053487143825,2.3940944290975974,-0.7294474480495541,backward,backward_3
2285,-0.004843531041033565,0.5110045257940888,-0.01681201859116554,-1.7040714732675917,9.403590152088347,-7.446256865222269,backward,backward_3
2385,-0.0004363821232691407,0.9150964908331632,-1.4256845447808504,2.1047176700975516,-5.103592479914398,-13.650723867633689,backward,backward_3
2485,-0.6123968618229031,-0.21807518016993999,-0.8926789073199033,-43.44183019688408,9.53800059099138,0.23351947196768158,backward,backward_3
1,0.07346073833443224,0.5829964336849749,-0.2696522226721048,-3.3446736271162516,-8.361448426264264,3.1135822873985095,backward,backward_4
115,-0.3676155706329271,0.4625027990840375,0.4187742781251669,-5.042002102847454,-4.872413201511092,-5.435753116988581,backward,backward_4
215,-0.37818657594267274,0.273269097995013,-0.047263855478167534,-5.230207965427155,-4.92478581140628,-10.036081890930806,backward,backward_4
315,-0.18645963326580822,-0.06268566181994974,-0.28977672681212424,-3.5144721298827686,-1.5510371362103421,-7.134790847559579,backward,backward_4
431,-0.34232181062884626,0.06083711134381592,0.07379238144159317,3.434405237337294,-0.5258272892561621,-2.7132273341036273,backward,backward_4
531,-0.11487552985767834,0.1545426191970706,0.2345522677183151,4.947148277635725,1.204940245186689,3.311113919516217,backward,backward_4
631,-0.16045904016662388,0.32679186773747204,-0.09198036456108093,0.3628798397531381,2.303421960318386,9.920314453367322,backward,backward_4
732,-0.340523017578572,0.6337662514574826,-0.3569710251629352,6.515294397386715,7.041206583759825,15.674918730058668,backward,backward_4
848,-0.48380745291933414,0.44214653201475734,-0.40976796484887595,-1.8932234237690457,5.513647155604344,8.358213477918616,backward,backward_4
948,-0.01139225856475532,0.07192629530876875,0.350684492239356,0.1047742747747758,10.405223733492376,2.3698594238185113,backward,backward_4
1048,0.23697354004848747,-0.026564912451058624,0.28256197312772274,-3.347882108478865,7.065511811921316,4.222700848223737,backward,backward_4
1148,0.11574103324636817,-0.07778788081854582,-0.3702572077155113,2.217032873922418,5.380235631867424,3.255733038178461,backward,backward_4
1248,0.2886895160973072,0.10492854733094573,-0.3912976576566696,7.480579419575229,1.209977189534456,5.463520397285621,backward,backward_4
1348,0.28596396359093484,-0.11466682814359665,0.2731464945286512,2.2086471091689353,-7.556309141997745,-5.2604896091124065,backward,backward_4
1448,-0.06727839643768965,0.33373934878781436,-0.3557084578812122,10.643816755352908,-9.518945216980692,-5.876068945796269,backward,backward_4
1548,-0.37990806597303595,0.2435990591354668,0.022277298259735106,5.6936149562713645,-4.973577694629089,-15.86631770607535,backward,backward_4
1648,-0.036865137995406985,0.3761065182656049,0.12782792301177978,-12.266393079486551,-15.667890465402724,-31.65195038748534,backward,backward_4
1748,0.24064945208225397,-0.093929160541296,0.21246727716028688,-25.733697339601427,-24.270390781628723,-28.79575993697735,backward,backward_4
1848,0.06846609011860565,-0.8656179549802094,0.5126075770765542,19.01644193242025,-11.841083176285382,5.670793159820236,backward,backward_4
1948,-0.4115395045660436,-0.13704605240784584,-1.0970984871029854,-0.5852259760123251,3.621884111657212,-9.346669916866398,backward,backward_4
2048,-0.27928865054547786,-0.6898050956740975,0.6262538300007582,-0.38342963780988504,3.0527543301976685,5.594152460917169,backward,backward_4
2148,-0.374855422225967,-0.14000658271387217,0.1601566596865654,3.2100386457442527,3.467364955507425,11.036656793013483,backward,backward_4
2265,-0.34810130734574046,0.20418854750618337,0.40963060220479963,9.984429439106231,-3.062729821480472,14.610734276235661,backward,backward_4
2365,-0.25022538194004446,0.31169717445820566,-0.24652093793153762,0.699903891681487,4.777132062589414,12.492566256115062,backward,backward_4
2465,0.6380323844693601,-0.2066588831424713,-0.4252636401444673,-15.162383042288203,1.606754404364721,16.2001705225164,backward,backward_4
3,-0.3559667069585994,0.3395334220193326,-0.46107262015044687,-6.60095393420196,2.557460174326432,-8.138540933832665,backward,backward_5
118,0.14795498443506658,0.2733899478957057,-0.006475333493947982,-2.225846165829262,4.2082588401105685,7.367818119020196,backward,backward_5
218,-0.21574516631979493,0.31124058979712427,-0.12315817763507365,1.941732494471534,5.972218372516184,11.2696729654167,backward,backward_5
318,-0.16126286736279724,0.3971240987878293,-0.5164490549355745,18.44095239106978,-17.130520834647594,5.52518804086755,backward,backward_5
435,0.2516288555298,0.3746110190108418,-0.34188334614634514,-5.532529640451668,-2.8162673544790278,7.804324409818309,backward,backward_5
535,0.14000110282115638,0.04059614121727645,0.2589905434042215,1.9895333599344567,4.105954132288002,10.095409767835182,backward,backward_5
651,0.5237840009335428,-0.25341230488047,0.05314005403518676,-0.04781859460629562,1.2034741023926634,1.6050318093117029,backward,backward_5
752,0.3862103444550186,0.16997224351912735,-0.21077917794287204,10.540195955454644,2.19595640424764,3.1081655204998664,backward,backward_5
868,0.1137356847733259,0.09610723523274063,0.2750204717069864,-0.27025953976085615,-10.412491908542917,-5.533524713636374,backward,backward_5
968,0.2448106999475509,0.16012392646074294,0.4222340631902218,2.1888365723681362,-6.350768800659448,-12.228648600359415,backward,backward_5
1068,0.48337417606860394,0.39443201015964147,0.40177345896363253,5.630220982376714,-8.645768710844385,-14.24675861800756,backward,backward_5
1168,-0.021614961893483994,0.41622298620715736,-0.18111527656316756,-8.08813669907891,-5.263195644684202,-12.695451048994768,backward,backward_5
1268,-0.2870442331083119,-0.25077370000518856,-0.9350234265744686,-30.75731854961873,3.3392338083291593,-22.860832689782146,backward,backward_5
1368,-0.5982456599388272,-0.6279650908980519,0.11055763925909995,-0.48544555669660705,-5.956151206267376,0.40998333222963185,backward,backward_5
1468,-0.7632282054118812,-0.5331570286303758,-0.3466419388502836,0.8158433646346916,-7.214802244818046,-6.613259373765384,backward,backward_5
1568,-0.3201074946027249,-0.341709670079872,0.05332534747421741,11.25286557741659,-4.7225016482867135,3.8213708854248356,backward,backward_5
1668,-0.19783442923910916,0.23797376659959554,0.35067981606423854,4.1906288412022965,3.4232299806380952,5.25381181853825,backward,backward_5
1768,-0.3243795458987355,0.537200531867519,0.04879296474158763,7.002255295583712,6.799540403659611,12.709421347168382,backward,backward_5
1885,-0.007875373017601668,0.47464521842896934,-0.6289794555723667,1.7467269651296733,3.799742664531167,8.318583866580555,backward,backward_5
1985,0.14219974537659436,-0.46369551599994296,0.9208552004903554,-2.260877779195434,6.603261257480955,13.539384100199666,backward,backward_5
2085,-0.0482681736825034,-0.5917210074104369,-0.9668447982490063,-14.345207257156831,-0.6874830859541131,4.570023651481702,backward,backward_5
2185,-0.10547741338536143,-0.5347500699754804,0.9437029921144247,5.24370698054804,2.2068635760219153,-0.7808188482619538,backward,backward_5
2285,-0.1914794707218185,-0.35229660361111165,-0.10085106875896453,0.41776566577820023,-1.8943166809230707,-11.27019035224633,backward,backward_5
2385,0.43059568535480647,-0.20701522229947147,0.46491585157513615,4.557985016182732,5.075719331685222,-12.080336165174465,backward,backward_5
13,0.012987272671237587,0.08800400827601551,-0.15396014313399792,1.3427046271373173,-1.702040025598042,-3.3885029510202234,backward,backward_6
113,0.019359145790711043,0.19748320464864372,-0.17226269254386423,-0.047837097482035476,-1.3766061643609697,1.8603245369712098,backward,backward_6
213,-0.18600082011502236,0.10231631900593638,-0.06868366012573242,-0.8004632193668509,-0.28374233318246134,0.8655955297661223,backward,backward_6
313,-0.025806933690607547,-0.1585297891370952,0.3616448621928692,-0.46062043374540235,6.3158084773927365,-2.8101122868197885,backward,backward_6
413,0.3397830493988469,0.2645329799622297,0.032148703932762146,-5.206486718439701,16.80087370718798,6.440716842499815,backward,backward_6
529,0.35511728705503043,0.7215128509063273,-0.17488427321910857,5.845930309196764,1.3825103292899168,13.529112349461611,backward,backward_6
630,-0.0995033804770559,0.2465909344278276,0.7454121243447065,8.396427532551192,-4.569353866056217,-5.6227944323147945,backward,backward_6
730,-0.011035773277282715,0.8305426230110228,-0.424579749533534,1.2603231542368547,-6.362602530283318,-15.858307601726217,backward,backward_6
830,0.17075469913370905,0.8353691663846373,0.4060580044150352,4.512849418599995,-11.892780878113209,-15.192237799150329,backward,backward_6
946,0.20225845622643826,1.0591343018244952,-1.2737316498160363,0.2979383744442304,-4.386900730304959,-10.445010439181347,backward,backward_6
1046,-0.4741556813463568,-0.23989253276772796,-1.0851654727250337,-28.278892201725807,-12.248732771613838,-13.98916230232876,backward,backward_6
1146,-0.6357935195013881,-0.6430654832657426,-0.46089434097409243,1.3555257459830774,-9.71919867948265,-10.63195613185918,backward,backward_6
1246,-0.8384173019088804,-0.3850100287545472,0.40749651278555393,17.86042558520642,-6.485601003743731,-8.855947291984016,backward,backward_6
1346,-0.4015930243628099,-0.08636237854883075,0.3967331267088651,13.30926478177818,5.348909823012807,-6.592261237822649,backward,backward_6
1462,0.1978523667545989,0.3578409398652613,0.9719447517365216,5.213683603390779,2.571825769698261,9.620736379955037,backward,backward_6
1563,-0.12648118457794189,0.5103267726629972,-0.45713294261395926,-2.536583060798053,-5.9362036387963535,13.37114971075308,backward,backward_6
1679,-0.015333342607039958,0.02613558112308383,-0.4804910218477249,-12.060787309996243,21.91199305556773,18.79610685998481,backward,backward_6
1779,0.12276881299130618,-0.1139591182656586,-0.15984744760692118,-11.035012424970803,11.869592385881015,8.379620144551081,backward,backward_6
1880,0.7044596439704298,-0.6022010465011001,0.3374135072559118,-4.870289866452864,-0.18734637932219045,5.83424086731911,backward,backward_6
1980,0.5134523208050057,-0.6218349906452,-0.3558756311416626,3.032594813418964,-9.54888791252838,7.002077710665292,backward,backward_6
2096,0.15929560414412988,-0.10002689289450645,0.30138357797563076,12.038736898034504,-3.4396198733251873,-6.2363460565888085,backward,backward_6
2196,0.06366227003345265,0.1890349636465311,0.893890036675334,3.549755606474585,-10.594389237650464,-18.327492703672114,backward,backward_6
2296,-0.6296087664518505,-0.053898032795637846,-0.5496481447041034,-8.293766374231314,-4.029094440444672,-20.070705536473813,backward,backward_6
2396,-0.9537404020041227,-0.17159107689261435,-1.4242559732824562,-16.075234409765823,-13.241288177837275,-22.054906226213784,backward,backward_6
2496,-0.5635871651422232,-0.7774263882428407,1.3081331011116504,21.959309191042994,-16.54366244342364,-7.324398606466425,backward,backward_6
11,0.00471630619848147,0.25789661068767306,0.05380465542376041,3.507308755547306,-3.85406059767934,2.806953751215481,backward,backward_7
128,-0.3427916200976819,0.35612142259627577,0.31738603374958035,-10.309591693602089,10.047821278566765,3.4712562423436286,backward,backward_7
228,-0.5241569258991629,0.3493075047977269,0.009054828593134879,-5.967350155185257,-6.249736642456619,-7.288907235991746,backward,backward_7
328,-0.5002843578046188,0.25675927722081543,0.03728139064610004,-3.601605706898267,-1.551423895672094,-9.919640825960428,backward,backward_7
428,-0.5827447239462286,0.39613311498910186,-0.7704273231357336,-2.2056021254595786,-2.503391329639553,-4.835984814459652,backward,backward_7
528,-0.01505211679615313,0.10993804605603218,0.5694634367644786,7.838356681131544,-4.369023563926097,3.746602512127999,backward,backward_7
628,-0.3642089039945975,0.2952124881252646,0.24709084677398202,-2.9617800524345066,-2.5704021021431367,2.967169071689647,backward,backward_7
728,-0.14055941255735233,0.6781959064230323,-0.30379765338003634,4.564174448231232,13.353463789670979,9.600404614343203,backward,backward_7
828,-0.0797698484160006,0.37128728141561146,0.2194949838399887,9.591293141990406,2.2426217507610477,14.010120737796944,backward,backward_7
928,0.01959134711138904,-0.1605022582538426,-0.9853186125725507,6.630121403278853,3.0922659073291343,13.375639706358719,backward,backward_7
1028,-0.13180484555242583,-0.05550225312188267,-0.17570552647411822,-11.82872480275589,3.7540294890767414,8.415203722579557,backward,backward_7
1128,0.047266668489761646,-0.02435936523079872,0.05349368977844715,-4.747353718468627,7.9300323339451015,9.474484100578493,backward,backward_7
1228,0.18768318371139467,-0.23274887155815957,0.2926461447685957,-0.9889476789594949,-0.38246930254041067,5.99423548730572,backward,backward_7
1344,-0.07361556356996297,-0.1105383500367403,0.08886837002038955,-8.46508459408816,-0.7293333091852209,-11.705449279747269,backward,backward_7
1445,0.2664231045577675,-0.034493221232295035,0.5548147336870431,-5.6103540965152625,-4.649754584097376,-13.12807181592879,backward,backward_7
1562,-0.11405684301909058,0.3544986437000334,0.06846738702654838,-7.368722265311576,-9.777883664831398,-18.698597371846414,backward,backward_7
1678,-0.5090124751940369,-0.16977788999080656,-0.6519950049787759,-2.709277563772656,-5.265912779313397,-15.798258286090759,backward,backward_7
1778,-0.033569420918263496,-0.34662615675926206,-0.28455753085911273,-1.0268409281444908,9.34087279380835,2.256718834321131,backward,backward_7
1895,-0.5743076619252562,-0.39141821529641746,0.0725578712105751,-10.36888029691874,-7.128374738607998,-6.741163203710335,backward,backward_7
1995,-0.17840249220682308,-0.31122561142370103,0.1650274805933237,7.075636713592213,3.4141458290419786,-0.46665453235113835,backward,backward_7
2111,-0.15005957376519216,0.03666764266192913,0.009749825119972228,2.665231808249359,5.062218609017045,5.913689200857876,backward,backward_7
2211,-0.27681243315767495,-0.003433919971436262,0.17516718181371688,2.602992990098087,7.940240905433332,10.16036998948388,backward,backward_7
2313,0.034679793312959374,-0.464322123465687,-1.4332710543870926,-13.957757946298686,5.073277539056942,6.192906053467527,backward,backward_7
2428,-0.35765849597044286,-0.0996903544165194,0.534451160094142,15.285792607759287,17.466798368244003,3.674420646092481,backward,backward_7
7,-0.253745007433556,0.3778400640599429,0.051072600111365316,-6.05634837384417,-4.08328345377226,-10.535740964568504,backward,backward_8
122,-0.08496267695189454,0.17090499432459472,-0.15168284585177896,3.6476663682267176,-0.18123095877664896,-2.3153291144758334,backward,backward_8
238,0.22956242354176937,0.10383037683069705,0.0874853912293911,5.238340586294525,1.1064440081566391,5.580017811316651,backward,backward_8
339,-0.06974588252976537,0.6530164569810033,-0.3576823883026838,5.781963026298656,8.613026491510636,9.90951848561047,backward,backward_8
