time_ms,acc_x,acc_y,acc_z,gyro_x,gyro_y,gyro_z,label,segment_id
4,-0.04405450151022523,-0.012620119859278201,0.041052725878357885,-1.9746569944787573,3.142814429829106,1.0744421172958964,wait,wait_1
114,0.028296522016637026,0.035660511445999146,-0.16123276448547838,-1.3779240707056648,1.9059531888346568,1.345823675710486,wait,wait_1
215,0.01588240959085524,-0.08118541430234909,-0.09450257651507854,-1.2911931546860793,1.301226275690005,2.0227509177457557,wait,wait_1
315,0.07466792216710746,0.008844692973792553,0.007072130343317985,-0.25539571410558615,1.0093008956341925,0.8872841551452632,wait,wait_1
415,0.03713237409684807,-0.019679390721023083,-0.040778585112094874,-0.08528310267852793,2.4252889702541034,0.7736206292895538,wait,wait_1
531,0.06476765572577714,-0.06881546981185674,0.002465513330698013,-1.2448825511226889,0.80909220288781,1.2098783652349023,wait,wait_1
631,0.029842801610566672,-0.06854980461299419,-0.026095395243167875,-0.6674908020883684,0.7501264327311495,1.8969196233270804,wait,wait_1
731,0.05411436069374904,0.0017845453292131422,-0.05991933891177177,-0.5510195348752549,1.1457582568541151,1.407720557516434,wait,wait_1
831,0.027974706183746454,-0.034219080466032024,-0.032799861317873,-1.0510730519375209,0.5765187121201752,0.9482552261535572,wait,wait_1
931,0.023723131420183924,-0.01201104805022478,-0.05600070416331291,-1.0590230719662985,1.3910576707059532,1.5399164143027977,wait,wait_1
1031,0.027015195235516876,-0.029180501776933668,-0.05682955620288849,-0.9351673030433433,-0.06132918236215024,0.7536140447152344,wait,wait_1
1131,0.03455682452041656,0.0019777298137545586,0.015908347749710082,-0.7384205023499526,1.049379058301652,0.9015922275176763,wait,wait_1
1232,-0.028308285519666968,-0.009886018720269202,-0.05504442635178566,-0.582392301280416,-0.41792235992271387,0.4029742774807294,wait,wait_1
1348,0.01130989577723667,-0.02492401337623596,-0.03271744373142719,-1.1111467001218986,-1.9396975249856934,-1.262127391394796,wait,wait_1
1448,-0.019632428040448575,-0.03607639877051115,-0.1135270104587078,-0.7841814891285687,0.6252877568979472,-1.1441263752510111,wait,wait_1
1548,0.017747710272390395,0.021442601001262662,0.0628676673233509,-0.2769640374418848,1.2233826097193696,-1.6261852253363496,wait,wait_1
1648,0.02062989637888968,0.02383212648630142,-0.05774257939457893,-0.7877676586079427,0.4903866649525824,-1.1907796622116658,wait,wait_1
1748,-0.01980257870927453,-0.06767594438791275,0.001581131711602211,-0.908472682611112,0.09827671048125737,-1.672356770517107,wait,wait_1
1848,0.009007993776723741,-0.04013707233816385,-0.03750935418307781,-1.023302036380778,-0.36628941148987026,-0.7846140322021009,wait,wait_1
1948,0.014171678416524081,0.016717326045036316,-0.027194880917668342,-0.09681184834770121,-0.7588342302318282,-0.932474927849889,wait,wait_1
2048,0.06918386473283171,-0.008151742273569107,-0.13055354858338833,-1.2157855183716113,-1.811252189105607,-0.47059715232782245,wait,wait_1
2148,0.01192570785433054,-0.03809650642126798,-0.1132961243122816,0.2056783802708799,-0.4178003236521528,-0.7053936562268849,wait,wait_1
2248,0.02238344378164038,0.02281915005147457,-0.06858312236070632,1.0805337922619016,0.056895916013242565,-0.22970806632825577,wait,wait_1
2348,0.009344477455783635,0.02460778703391552,-0.047637949487566944,1.5346889717102108,-0.46578528405754843,0.325266895128377,wait,wait_1
2448,0.10952528227036819,0.030123920106887817,-0.07400573193132877,1.235227011513818,-0.26866378345515907,-0.42452432472491297,wait,wait_1
5,0.3518387768410146,-0.1021335097849369,0.075450670042634,-2.1182802913550813,0.6218860558870164,14.720999142649054,left,left_1
105,0.20452800859361886,-0.03258621856719255,0.07819675388038158,-0.6043664072225222,2.526094664997264,21.091899072113467,left,left_1
205,0.4470041281137615,-0.06134148066937923,-0.04599252036809921,0.2056556752279749,11.77804138401981,25.380562899133427,left,left_1
305,0.447068060195446,-0.06641893006414175,0.09393617480397223,-4.80530573914207,15.955777816276884,37.57876507749386,left,left_1
405,0.8962317774958908,-0.08432605041563511,-0.2077308962881565,-15.734793875870292,16.700471633936083,57.21804513013841,left,left_1
505,1.2895995194248855,0.00959463455826044,0.503305495724082,-3.9370606295865116,10.056592095234707,77.8833493697131,left,left_1
605,1.1736172247685492,-0.13395283563286065,-0.33078795163631436,-3.9139494038693043,8.49645053030415,86.92508549108427,left,left_1
705,0.6927493324324488,0.19610811690315602,-0.005979074409604072,21.18268765410857,3.2089643850538567,64.16670393130504,left,left_1
805,-0.4005970355954021,0.5032007201753557,-1.773281007876992,6.386412569729982,29.926593376721343,65.9821067409919,left,left_1
905,-0.3786517823016271,0.8408157413527368,-0.2088853270202875,19.856485190892826,30.556237780453554,69.3905418915575,left,left_1
1005,-0.9262113206960261,0.7082891391307116,-0.21207155584096907,0.24613867334610326,31.09607544188385,97.99969081512636,left,left_1
1105,-0.4314255237750709,1.0109913984894752,0.17740297804176805,-1.4274112458416401,14.441654650879288,81.16273492610048,left,left_1
1205,-1.1301146945852785,0.6733826609224081,0.19477029242813587,-0.428283383367653,25.674879165563862,84.38625636526635,left,left_1
1305,-0.034181890260800714,0.7061869061544537,-0.0901250920832157,9.949890880020769,35.569098027433505,84.22447650458543,left,left_1
1405,0.3236565288538113,0.8212997244998812,-1.231849487376213,-14.232317036781213,19.464440870270558,98.89266974721382,left,left_1
1505,0.34664179271981116,0.4051841441899538,0.3686883509635925,3.496369994148119,8.659436773147226,80.32803799820074,left,left_1
1605,0.7930169022150337,-0.030706980691850183,-0.6723872201442718,6.052388571672855,9.480499789689983,65.7888192176697,left,left_1
1705,0.7768199467822909,-0.08335486729592084,0.3821475519955158,13.57162856949765,9.23906882422931,48.42255098872453,left,left_1
1805,0.6206086637206375,-0.06767842860594392,0.1669879670113325,7.148177164559157,15.082492027113856,44.1414430584739,left,left_1
1906,0.6081791345300153,0.05062982477992773,0.27668811265826226,6.4215086430064465,13.130607523658156,45.40878807406435,left,left_1
2022,-0.09045867141913622,0.5963350770771503,-1.2254852130413054,-1.1125098564698452,26.856172335348614,50.799053838727936,left,left_1
2122,-0.6219656312875449,-0.037134383390843864,0.5544213504552841,7.820012500568183,20.412346476115975,53.14647715834001,left,left_1
2222,-0.782973354845494,0.29259879849553105,-0.827158095139265,-7.272188640450848,19.623661117560015,79.74962342833821,left,left_1
2322,-0.36154593186303974,0.20688217050433158,0.429128498879075,-2.525253271068883,18.959083711317778,72.50224630382108,left,left_1
2422,-1.05515524212569,0.23648118995428083,-0.2816395975857973,-2.9046897028135437,14.741769747915063,70.64170960409878,left,left_1
5,0.9428312507811933,-0.2786361779861152,0.04871873046159744,3.0246760628499807,8.637783365930993,31.847683118530394,left,left_2
106,0.9061210110865533,-0.027629034551233052,-0.26543723532557484,0.9173680435097017,-10.01964504069317,28.924345078292014,left,left_2
223,0.4525057212047279,-0.6136953772008419,0.21111878516077995,10.232116857846634,5.461532385350324,20.85780116850045,left,left_2
323,0.38310258769802746,0.3717605980157852,-0.8311053714603185,-2.806563149772321,2.2387588518985826,22.767836249137837,left,left_2
423,-0.6634075026139616,0.013050912491977214,0.23984862056076525,7.075439491879929,8.89177675682261,26.938254133699242,left,left_2
523,-0.7035436251040548,0.7184305939167738,-0.6208616155683994,0.4782032616597192,5.722926286207651,37.086567985524404,left,left_2
623,-0.8041980022471398,0.16252280429601668,0.09719079268574714,-2.06597278170042,12.296636303357722,38.4346014408748,left,left_2
723,-0.5309010663971304,0.2416176760599017,0.0628629911482334,1.7014292572758547,8.702501969637803,48.142882062969186,left,left_2
823,-0.4407167184073478,0.09982961675673722,0.010190554624795914,15.132876625073749,19.434954943623612,53.28331316817205,left,left_2
923,-0.16500826443620026,0.34935002876520155,-0.6485521710485219,2.7418413444143375,22.18448516005268,63.551993736193054,left,left_2
1023,0.3745359810132533,0.31572277671247717,0.031020576685667035,-6.222655796171164,16.253691884852625,59.401028230387844,left,left_2
1123,0.3834678408138454,0.032677111721038814,0.15351882910728454,5.863577383577962,22.322707698286226,58.46758042746805,left,left_2
1223,0.856832225652039,-0.15232991158366202,-0.20120120225846766,-3.2182662489297678,13.776747688009594,58.618937419475536,left,left_2
1323,0.30054796740170564,-0.07077668688222766,0.05240881715118885,0.08236493770617304,0.13156434443261533,30.390168560973866,left,left_2
1423,0.21171916220672427,-0.3494428216151893,0.11370528963506221,6.638748359087402,4.500266075714716,23.327933959193686,left,left_2
1523,0.2151461044481024,0.5532444156304002,-1.4104004664093255,2.256467824869133,17.72926717012196,24.614350570494103,left,left_2
1623,-0.19973580588102338,0.10045417839586734,0.5435702860951424,8.300926973802426,7.390490078196407,30.493693738223747,left,left_2
1739,-0.40734596186634153,0.6331362829908728,-0.8262596849948167,-5.904847947864117,9.703616456664912,57.2535108874037,left,left_2
1839,-0.37929135884679854,0.006336509545147418,0.4605266767054796,0.7414483038646781,19.5637381604242,57.09998531033474,left,left_2
1939,-0.2285080556506291,0.4613827090129256,-0.3184942872524261,-2.810131069840006,16.696756011027595,63.18048608685772,left,left_2
2039,-0.43771183750294146,0.0942059316560626,0.22696692715585232,1.8290783425091055,27.313480821037647,75.599661960341,left,left_2
2139,0.5495464013626798,0.819052822355926,-0.4479705619931221,-7.93138556517441,29.833088086983867,102.46054200357504,left,left_2
2239,0.8179853392548858,0.5699442060187458,0.5707815336257219,-10.438927301951804,28.660190927236354,96.76909563236515,left,left_2
2339,0.4492892068436369,0.06765840873122216,-1.4261153374135493,-2.6669143826627093,27.746777776699503,84.1302540449851,left,left_2
2439,-0.19032719541415571,-0.271767753521353,0.2715396438539028,1.2758556447396985,15.74209876318762,53.006844186042855,left,left_2
6,0.1683490992967039,-0.0918302885659039,0.16577859122157096,-0.2106159000094983,-0.8795578238118036,0.07964942391288389,left,left_3
106,0.12050349840782582,0.06921762087196111,-0.08963117108643054,2.378091722759081,-1.2938309950878795,-2.4008810758116517,left,left_3
206,0.08445822542794049,0.010708002627640961,-0.05474748923182487,-2.013385447733199,2.8515819938089324,-2.4845169556418694,left,left_3
306,0.09770232240445911,-0.07262260700985788,-0.0750759915113449,-2.177371459516035,8.073475698025478,3.3628950777179645,left,left_3
406,-0.020509521402232347,0.03174552995935082,0.04117605999708175,-4.378881234445719,9.333912831044108,19.87805663583902,left,left_3
506,-0.3483240101857111,-0.025497867741435764,0.2710831322580576,-1.0226828370438341,7.262324993515703,32.61854851354179,left,left_3
606,-0.38975031861681486,0.16719298806414007,0.06260813960433007,3.5314812219068044,18.804972445527486,52.39533734965161,left,left_3
706,0.09595156974699348,0.14169351288750767,-0.8424094402849673,-0.8095147674818517,-2.32392832264088,63.596991022445096,left,left_3
806,0.6706818775311112,0.2194423768699169,0.6576327186048031,-4.587501678680941,19.845843756165948,71.8429827847531,left,left_3
906,0.8750110756170004,-0.16659925995469094,-0.060035658767819404,-5.372751452084382,7.574605511236917,59.9673192144736,left,left_3
1006,0.5461948624450713,0.14604571674764155,-0.6359405267566443,-1.9155555810340485,5.322001439003896,48.09571619165566,left,left_3
1106,-0.03453998298346996,-0.30253596288114787,0.0740741209924221,18.15254082317682,3.545533055463636,25.541985882430215,left,left_3
1206,-0.0707581283122301,0.26700536142513154,-1.5417285064965485,-1.315065626330626,-0.4779866699578358,21.623420978229277,left,left_3
1306,-0.07862875208947807,0.026814503297954796,0.6001350538820028,10.498352509051854,-0.38933647078147665,23.97913273239916,left,left_3
1407,-0.9690187812872231,0.07643252068683505,-0.9407125781267881,-0.2267609731035275,12.960401770862378,47.02915824709608,left,left_3
1523,-0.43557259698454287,0.2446210956595838,1.0185369915634392,1.3134782476788327,10.082613408425164,51.54201108079066,left,left_3
1623,-0.24993481976194307,0.08757730729654431,-0.05788228012621403,-6.500954415224273,16.988550230107002,58.88563581599702,left,left_3
1723,0.4112223283756524,0.34271512079536914,-0.6084837800323962,-0.23792761202498433,37.597824720372785,78.75853565901268,left,left_3
1823,0.7383633018117398,0.3296967953987419,-0.034248891082406044,0.9311229772810495,-3.0496169254911054,59.99908642430333,left,left_3
1923,0.4216797172430902,-0.005857347726076841,-0.14239888467788694,11.354777976248705,13.40789612848775,45.66006048834536,left,left_3
2040,0.4462755581108853,-0.005441752662509679,-0.10764730477035045,0.7951428221685284,-4.249752239318396,21.839681842824803,left,left_3
2140,0.21966714380281044,-0.22298282595574853,0.3988882589161396,6.981701548823851,13.62318881376843,7.751230788078861,left,left_3
2240,-0.273490229932405,0.00437207760438323,-0.4620692299723625,3.415227133364956,18.90229751855829,21.484955968280193,left,left_3
2340,-0.7925104139976203,-0.05208820689469575,0.19407471137940882,1.0567110529322492,2.9847792203606436,26.167371663214922,left,left_3
2440,-1.372116912983358,0.09222469471096992,0.021875147199630737,4.748183159565961,3.735680185871502,28.862688960654307,left,left_3
6,-0.2772618939582258,-0.09112170190513133,-0.09021744654178619,2.106459795222728,-4.630319707700928,-7.128196299915931,left,left_4
107,-0.7643934497989714,-0.1666559585779905,-0.016876315999031066,-1.5303288564205098,-0.7454938035657355,-1.8850233547836222,left,left_4
222,-0.4765370600575581,-0.02833732895106077,0.3645493514627218,4.485171784535811,17.40166568431876,10.065204963778093,left,left_4
323,0.3568945258606225,-0.46308688258230685,0.09672726682722568,-17.217281312579683,5.269292869178907,38.318706791038025,left,left_4
423,0.886896232265234,0.3974982658624649,0.15146598823070526,-8.42449107230348,31.383161953077828,67.5842847051693,left,left_4
523,1.4159545934051274,0.3295426277503371,-0.16111176845431327,-3.9582487301655376,18.241570631460643,53.92007804411399,left,left_4
640,1.1773946974806486,0.09278700476884841,-0.3420136945277452,1.6448590692488703,16.949715482033604,51.02236345854691,left,left_4
740,0.5264382783019915,-0.017760405357182023,-0.14476736737489698,0.7098666830813027,-5.411710424223312,41.57980451592271,left,left_4
840,-0.07669802148891612,-0.28418489815443754,-0.9707260235965252,0.25869400178361474,2.5784999317344215,19.972605236972214,left,left_4
940,-0.4141981293160468,0.13181494682133196,0.7359189043343066,15.22923864143158,0.31185469811514627,26.577529645516066,left,left_4
1040,-1.198223696628213,-0.16043576888889075,-0.7429547943204641,-3.8418144953843303,9.060181900998446,40.476366964939636,left,left_4
1140,-0.37476624610517173,0.3105801531270146,0.7299637953221797,-6.263329145791767,17.522867391140636,42.02916266141785,left,left_4
1240,-0.8362338934551924,0.0019447043269872665,0.7695721676111221,-6.237287768920624,31.407443275577222,64.52726961759001,left,left_4
1340,0.6134469553977251,0.542959168459475,-1.1442010145395993,-25.148454288116177,20.625081255552484,77.77610173936556,left,left_4
1440,1.1133036258421838,0.04616100880280137,0.15203355898559093,-14.589970501158822,-11.478947400264952,80.71860187532042,left,left_4
1540,0.5816342784862965,0.1183592529207468,-0.4259457771897316,4.482793598044177,7.144108933134769,52.05012592862083,left,left_4
1656,0.8510054191946983,-0.09523907409608363,0.1983592568308115,-1.4923223755056796,1.1535749814723717,43.231398898745155,left,left_4
1756,0.2505961332148872,-0.02053513076752424,0.0731067372649908,4.087533538983301,-4.620041553660529,24.675267320154155,left,left_4
1856,-0.3631174189634621,0.12990545993819833,-0.5045078572511673,-2.084149195742293,17.7951289767411,19.80392859277687,left,left_4
1956,-0.8310823559109121,-0.06984115959778428,-0.11320961507260799,0.7271624296070675,9.166571488831503,21.6016634106282,left,left_4
2056,-1.4510337978318333,0.03403422541841864,-0.08843465477824211,-4.346540715612531,3.822847913832851,34.8131770863261,left,left_4
2157,-1.2559281359694898,0.28967531226426363,0.7096744560092687,6.49323928966992,14.880248418242486,29.43311220918792,left,left_4
2273,-0.9176628341898322,-0.13465674611851572,-0.7569915029793978,-3.8019970538440946,-4.938357824173918,32.66176653551504,left,left_4
2373,0.4792207461835816,0.08837035737037659,0.37107553836107254,0.7154936917403354,-1.2948206254655907,30.532718024046616,left,left_4
2473,0.8351859187722206,0.18561726415753363,-0.7823983314365148,-6.475540988869947,-4.731885047545841,4.603270451040386,left,left_4
5,1.0365130854979157,0.22774521805196998,-0.1546709217518568,7.407773018117478,-11.187266733080497,23.117594868608556,left,left_5
105,0.6069193071946501,-0.19711656329333782,-1.881172058275342,-8.6965007946783,-22.774936230780064,8.767506587516106,left,left_5
206,-0.14658968743123113,0.18299802156984804,0.9332061480194329,9.869573831796943,-10.893999754461305,-2.5738741861190304,left,left_5
306,-2.040905816374719,-0.47134062392562626,-0.36898821069300175,4.209593715206483,0.5088403419860759,22.72957523695472,left,left_5
406,-0.46745808340385553,0.47701837730109686,0.6820008516639471,1.9526454292179218,19.229492608105872,39.90762735803643,left,left_5
506,-0.5884641245063394,-0.08736585650295019,0.4618944579273462,1.3512279561695526,24.461950267090902,40.813047479697076,left,left_5
606,-0.0023378683630377053,0.477642938940227,-1.6788713703423737,-9.000061722150347,34.84364656021352,71.23706987329211,left,left_5
706,1.0045434644591063,0.09194675455242395,0.8086626535058021,-3.6632541405731565,21.97866594715081,65.17517453206824,left,left_5
806,0.9579886340331286,0.3812368668913841,-1.193852057415247,-0.08725497295582531,31.319753891918015,49.202107799454765,left,left_5
906,0.5165773940229789,-0.26531857738196846,0.7784288432836532,7.00820396346397,7.456395427271506,31.856190119141647,left,left_5
1006,0.4087909365102648,-0.05351648613214492,-0.2983317891895771,12.391239546004277,21.999173590133772,25.51756624860013,left,left_5
1106,0.17593277762504295,0.43271015675812957,-2.016725607103109,-15.075204215269453,21.307485455528457,35.13625869444604,left,left_5
1223,-1.0644457791708408,-0.5729886882811784,1.1306441983520985,-0.5393550658767541,7.480210589360048,36.08245846054625,left,left_5
1323,-0.6801659643869846,0.02633884861022234,-1.4819827705860138,-10.618261602573305,14.677924554648369,59.78161320113012,left,left_5
1423,-0.47941959322392935,-0.22331015821397304,1.2522481322824954,-4.80804251056513,9.718614698308613,57.0240097011021,left,left_5
1523,-0.44762923774216323,-0.0453936776921153,-0.5591764360278845,-9.595642264944411,18.049314466703127,63.79068152692832,left,left_5
1623,0.45007878631874915,0.46371875074505803,0.22768413551449773,-2.4429552545423414,17.473483415894155,89.36707619484976,left,left_5
1723,0.26307193096634,0.07276552261188626,-0.053265141719579696,-8.896031110901882,7.305516548505925,57.913406198969895,left,left_5
1823,0.693764135498181,0.05307283401787281,-0.5992541793942451,6.36974135862645,22.955953319258327,30.812578195098716,left,left_5
1923,0.2919744377858005,-0.2584438693068921,0.31299218270480633,2.3932222993179515,-0.3940524229186796,21.176463644227397,left,left_5
2023,0.1804290113320574,-0.38443303258419037,0.3639917175799608,4.888035978577027,8.898462658246407,1.191803977143756,left,left_5
2123,-0.24431679721707478,0.0552243129633367,0.4350684103220701,-1.7947376454661623,-0.6172592430545675,-6.9305280640148235,left,left_5
2223,-0.6124720094183459,-0.3310473332248628,0.09340075275301933,2.3806660637459407,-5.229314918193176,0.008866359275043466,left,left_5
2323,-0.7732173922456801,-0.049827860747277734,-0.4814098902583122,-13.054762541793396,-22.59659145381457,1.6697605515805616,left,left_5
2423,-1.2590284400723875,-0.08088833105191588,0.3564969779103994,9.693538512544558,22.845939462296933,-8.159535227793993,left,left_5
6,0.6170327049300074,-0.5762126187637447,0.24717151079475877,2.1072491089586878,6.233370655431622,17.88000090736768,left,left_6
122,-0.3861589795939624,0.19085691837668417,0.17565759567916392,6.197439591529124,12.886476925928037,11.369744628267496,left,left_6
223,-1.502174494743347,-0.5170104882106185,-0.05384089578092098,-1.1685381116748714,-6.16569500670102,17.54852499675779,left,left_6
323,-0.7815253479942679,0.29094065602496266,0.2540191847324371,1.4473715131956504,18.634999772937135,30.965219262670164,left,left_6
423,-0.6476400977049023,0.15604118719175458,0.17988719607293605,-0.3400386999928369,9.69959006014919,41.835981006027794,left,left_6
523,-0.2660662174114957,0.0556624121196568,-0.6707949825167655,-3.2968770305215602,9.485104190964217,52.37745591440452,left,left_6
623,1.5315234849549828,0.029138416200876233,0.6350713427066803,-14.04105722586887,6.867773139694393,69.72472255707872,left,left_6
723,1.3312705233320592,0.2173657167263329,-0.2963730563372373,-5.620931925105497,15.438594184776226,51.22112537848887,left,left_6
823,0.8081044351011514,-0.4375627113558352,0.1932569652557373,0.6059729957813561,2.468392800002173,47.76275129980671,left,left_6
923,-0.11530819478705524,-0.48644423116371033,-0.29064357277452946,-3.548366943638957,-15.906945378805878,28.696821231755134,left,left_6
1023,-0.10972038471736013,-0.4724176055073738,-0.7416992413014173,0.03845389832610568,4.554644199904949,2.545659528431354,left,left_6
1123,-0.08299208013182506,0.14691037075296043,0.5340712208658457,13.200373637161606,0.5358023002912896,13.747044049082856,left,left_6
1223,-1.2868638108506798,0.03912833368703723,-0.5339695140570402,4.558968990310037,10.83001368854298,40.75768538137954,left,left_6
1323,-0.30343501234641296,0.4434269272141158,0.6844277865499258,-2.259412917061878,18.084001582403037,44.50465885815684,left,left_6
1423,-0.3768803521823138,0.11009572083577512,0.11490239046514034,-9.76910516420064,17.120808305647838,53.48563361667158,left,left_6
1523,0.12992663059039042,0.39642391462922094,-1.4183365201056002,3.4249074324095683,36.204295374960935,77.8888135210491,left,left_6
1623,1.1314752423487604,0.2517746206760406,0.4811456863641739,-8.665132297141371,-3.022446219529383,77.99083605668159,left,left_6
1723,0.560399694212526,0.2260978892363608,-0.9274597133219241,9.846568047125047,22.66771421364191,50.415835830060615,left,left_6
1823,0.5244055668979883,-0.1441970201410353,0.5460562576919794,1.4486615651751367,9.143700600395714,40.66138654427153,left,left_6
1923,-0.29376926704701034,0.07840513593405485,-0.03307809373736381,5.452046533253646,-3.4886862447752662,22.556342856582976,left,left_6
2023,-0.11711032143873162,-0.03015913755074143,-1.1942530394315718,-5.017783959597881,-5.379953032790515,6.720793445171242,left,left_6
2123,-0.6712305974550545,-0.11933891160786152,0.483458054959774,7.60548138137996,-4.081365024389133,-4.325371824940546,left,left_6
2223,-1.0484245456311851,-0.32558556068763134,-0.5769587609559297,0.8160088900003587,-15.762645679758311,5.666762494436282,left,left_6
2323,-1.1540344262897968,0.04727613043785095,0.556758268970251,5.6285309374439585,6.414428725044905,-2.426941235703012,left,left_6
2423,-0.7380982211347669,-0.14106836672648787,0.3613607845544815,0.953496862733013,2.9555101522198464,9.750139436422806,left,left_6
4,0.4633822853323072,0.1080655301824212,-0.3316805165618658,-15.968712487017596,5.099553276793982,27.693468150227552,left,left_7
104,0.9715974726688116,-0.14214622509106992,-0.11385025106370449,-0.23757313587923126,1.210019664773357,28.98970657355445,left,left_7
204,0.8855722901850939,-0.24297478975728154,0.33275428327322004,14.810805884950968,-8.606851146727298,20.077552801116752,left,left_7
305,-0.14186762734539807,0.2877479974634945,-0.9930185194253921,-8.069791664741903,9.804549577124774,2.1774564099938374,left,left_7
405,-0.8450242989584803,-0.4216019027665257,0.3305085501730442,7.939213815736891,11.224880584839756,7.230234203474044,left,left_7
505,-0.6908644685339183,0.2662938521549105,-0.12719196319580078,-2.415434928272479,13.297966795117333,47.92225329239943,left,left_7
605,-0.16566581502947955,0.20598405262082814,0.8152157284110784,5.590339080926186,14.81318791342401,62.61309544231559,left,left_7
705,-0.3136874714925885,0.10860942780077457,-0.09191782071888446,1.4326302574194705,17.63531450299385,74.93099327078592,left,left_7
805,0.22123097731973976,0.7543783978715538,-0.7610702967256308,7.026589552049175,33.748856028719686,89.47801895753828,left,left_7
905,0.8345693943090736,0.4717946513034403,0.02215337961912155,-5.970597056361952,2.3032891985163935,77.75768071917403,left,left_7
1021,0.5047030144970863,-0.021229104381054638,0.13139818271398543,11.334860290855302,19.422071499301676,41.293981589725185,left,left_7
1121,0.4527572848130017,-0.325111659565568,0.36923195632100103,6.113870092599901,6.290813827011898,21.134136961940825,left,left_7
1221,0.20113343425188213,0.4241448652476072,-1.908399087896943,-6.534740799727387,13.592273670037658,22.705309282380956,left,left_7
1321,-0.05127893633842468,-0.11662030029892921,1.2881255013495683,6.404925797475301,0.5267415741095917,23.08063159236774,left,left_7
1421,-1.2116527947828173,-0.2360495205387473,-1.4043804754674434,9.188419556439081,25.305975525849593,58.358208608288635,left,left_7
1521,-0.34228505881503224,0.20873715072125196,1.1723802303195,-6.529478138971892,16.26332245158234,54.99277291364284,left,left_7
1621,-0.6800537361841649,-0.11697364378124475,0.04092354654073715,-0.37586536338665455,29.824871369412342,57.851975477574804,left,left_7
1721,-0.2730988925272599,0.5685748173616826,-1.1284212616056204,-3.1905094273598937,36.0245930978979,85.97318251702711,left,left_7
1821,0.833164861273393,0.41668344332575796,0.6402157198578119,-14.327208001146554,9.763121918487709,63.806800773369545,left,left_7
1921,0.25057804956892504,0.18353811979591844,-0.9680851536989211,0.0638753688290039,13.409270704058214,29.411494660464832,left,left_7
2021,0.48155269626248626,-0.2032537508741021,0.03631459144055843,-5.477069358164811,-2.7232448737385084,14.507905778281119,left,left_7
2121,-0.020759915966726838,-0.17789879873469472,0.536116462957859,11.176539067215344,-8.166575445280984,-9.503184555470888,left,left_7
2221,-0.4213654636621475,0.20891250728815794,-1.2530483427494763,-2.852141428990639,17.907675126337278,-19.029794952247627,left,left_7
2321,-0.5566160840205848,-0.37539676256105303,0.3697480891495943,4.997474818987672,-0.3537384052814429,-16.352692061777372,left,left_7
2421,-0.6134880911257118,0.10131839400976896,-0.26279636542797086,5.329915066931002,-6.857002785146928,6.03128798289257,left,left_7
6,1.0089411148961633,-0.2882350503280759,0.026691023048758505,6.2489755032509855,1.7022498404716082,24.172095821735777,left,left_8
106,1.1779290966182947,-0.27722821088433264,-0.22920973764657973,10.041049146004697,-15.657040709906159,25.35635500116761,left,left_8
207,-0.013640329752489924,0.43649230564534663,-0.9604039515465498,-10.288642649644014,9.656592311776667,0.34576274536285145,left,left_8
307,-0.6593101502977311,-0.176466866235435,-0.05976210252344608,-1.3309892518851587,11.203795790871927,1.2287474031472974,left,left_8
407,-0.954144964217022,0.5166854940399527,-0.9584615853071212,-7.565471840769318,5.170965465887403,36.25275898221676,left,left_8
507,-0.18027528207506982,0.5033621943473816,0.65614627943933,1.5867733262780834,15.981329553961903,55.38697728159013,left,left_8
623,-0.01329688660968095,0.28700580079406496,-0.8065998757570981,-2.3627383112785383,11.193386582576828,75.04345916565934,left,left_8
723,0.6860485926847905,0.4757417814940214,0.15045885701477527,4.3484156025397,31.227208243758927,84.69459842515741,left,left_8
823,0.7962115335378795,0.13922171594649552,-0.030029812082648277,1.4301043680870351,15.91140036969202,59.229501689761314,left,left_8
923,0.5095397139385343,-0.17339315787851808,-0.00011924246549606323,3.502701152621898,17.77570733383617,45.32507727559667,left,left_8
1023,0.017105375514551997,-0.3551271508619189,0.4308826490700245,-2.567379743435406,1.9584280381239838,32.84279386927706,left,left_8
1123,0.389185780069232,-0.20008476544916629,-0.8541051387757063,-2.7881391413730343,12.690969591125592,17.3644394457949,left,left_8
1223,0.19000136099327355,0.24200024563670158,0.5429360798448324,15.909551095974239,12.655115366851257,27.132000987243117,left,left_8
1323,-0.9964075773417949,0.09734101481139659,-0.9840881939947604,-6.262447624502013,15.770910208654026,54.05442444999356,left,left_8
1423,-0.23742365843616425,0.8864847288548946,0.5847849245369434,-3.3022869672310335,21.151224387696907,61.70788364142463,left,left_8
1523,-0.4693586928607896,0.2790209395200014,-0.2742921574324369,-5.861233348032178,34.87563233609669,63.394195875798246,left,left_8
1623,0.13479922332912683,0.4004568234071135,-0.8925865528613328,-14.776832524019325,28.51881967179543,94.99757678809563,left,left_8
1723,0.17124715882577002,0.05789587026014924,1.6800170332461595,-22.620442474396253,-6.61764264766524,61.48949517290264,left,left_8
1823,-0.8030712632395327,-0.4444203221656382,-1.8272902459621427,0.0016526923357315228,11.239666236845542,27.97122974565717,left,left_8
1923,-0.044554870514106004,-0.23840236727520822,0.8245394370734691,6.2080682196513095,-20.6725903438718,5.214391808630345,left,left_8
2023,0.2198464093598537,-0.15966244642883537,0.1989250740200281,2.5599230978524563,-3.98972821827648,-23.062830411843397,left,left_8
2123,1.117292768543586,-0.08051964386999606,-0.0428863710463047,3.536736625586306,-4.809448675760506,-28.60311274388985,left,left_8
2223,0.9343521031841635,0.1798971329450607,-0.5265221206605434,-3.2052882491765087,-6.584833407100261,-28.94861274041307,left,left_8
2323,-0.3816501604000106,-0.3569638647697866,-0.0442021298199892,-4.028968935718673,-7.581767818355321,-13.05376618794822,left,left_8
2423,-0.9874725757360457,-0.2868478337533772,-0.15275135186612604,2.21083148904287,-4.873236239306078,6.421750687835159,left,left_8
7,0.0633030630659312,-0.006886836904287338,0.001869301003217697,-2.175554629196812,5.30628431995005,6.603583983919238,wait,wait_2
123,-0.023583047096058726,0.0451958170324564,-0.13320903152823446,-1.3920418582766696,4.622998171797498,0.6778140994103138,wait,wait_2
223,-0.08476858828505501,-0.1347248429186642,-0.05791033717691898,-5.571793409782309,11.09605980199873,3.176643503014533,wait,wait_2
323,-0.005739274304360151,-0.07717559413909912,-0.03434475267231464,-0.26481830691116254,3.8574492252813126,1.283569809798699,wait,wait_2
423,0.011302315258979796,-0.05241480850055814,0.03982581443190574,-0.7840542768552772,3.2956448217066074,-0.2210890079259344,wait,wait_2
523,-0.015241061213705687,-0.05764496423900127,-0.007652560579776763,0.6385352823191572,-0.026391050540135907,-1.4567519242470168,wait,wait_2
623,0.027001047979155555,-0.08526566935330629,-0.04385843094885349,-1.2448570446350071,-0.9402398924408414,-0.7960006512395997,wait,wait_2
723,-0.019138625774672253,-0.08996917086914182,0.016546645653247833,0.6035579903012277,-0.3370144736552551,-0.49860983918730745,wait,wait_2
823,-0.052345999314356594,-0.05163856343105435,0.042215339916944504,1.65666270335171,0.4732122076454382,-0.4219314141612469,wait,wait_2
923,0.012982998354919255,-0.02640840671509504,0.030533085429668424,0.24222017247492578,-0.3058955715077217,-0.31368676295786996,wait,wait_2
1023,-0.01231693566162139,-0.05010901577621698,-0.0926134017676115,0.1455042669407221,0.09413537468840824,-0.46367587618192524,wait,wait_2
1123,0.0323350385514088,-0.040132980684936044,-0.14560440272092817,-0.30426363654376465,-1.1934293487228076,-0.21972497112391523,wait,wait_2
1223,0.02963541507073678,-0.05456950231641531,-0.07082768641710281,1.6629021878802226,0.867800933816096,-0.08709797198640758,wait,wait_2
1323,0.04892361451708711,-0.02195201182812452,-0.036139819395542144,0.22782832356347424,-0.9348723242485634,-0.4155586609026399,wait,wait_2
1423,0.035179568661795925,0.010621347257494926,-0.04371989926099777,0.6220168966983045,-1.106133981601344,-0.05165242514414873,wait,wait_2
1523,0.053597323682857675,0.004605447968840598,-0.11604337719380856,0.38255094464533346,-1.8724419328890471,0.29422694036269537,wait,wait_2
1623,0.01515125490524806,-0.0697130031734705,-0.11083470263481139,0.35779713847401723,0.02945910948331415,0.07368872316029905,wait,wait_2
1723,0.050963796841492874,-0.028436113150417802,-0.00447509958744049,0.2086767265948097,0.9625928604384717,-0.3272417802938627,wait,wait_2
1823,-0.02509645646684803,-0.02598667417168617,-0.03182604784965515,0.21273602007633935,0.839856121961488,-0.19735675526257138,wait,wait_2
1923,0.01230464243562892,-0.06259907951503992,-0.08693886326253414,-0.14717320765615885,-0.0586857724213297,0.09304185073011861,wait,wait_2
2023,0.009498014916526153,-0.003382628175616264,-0.06452654044628144,-0.1281841611856127,0.28650839971375786,-0.11178487698841208,wait,wait_2
2123,-0.02106788593735546,-0.025549159537255763,-0.028029578176140782,0.529339233789165,0.2767245272536848,0.07069555283909963,wait,wait_2
2223,0.035397147802077235,-0.05109159707278013,0.019846856242418286,-0.9944451274677089,-1.5057587449852698,-0.31189165050577305,wait,wait_2
2323,-0.01851714200861752,-0.03965717986673117,-0.08302373564541339,-0.08229129305907722,0.43280339445304117,0.25152505123902524,wait,wait_2
2423,0.00036655915691517294,-0.031687808422744275,-0.005222118562459945,0.03827465922124573,1.1026506918463432,0.015504582776781836,wait,wait_2
8,0.18815909412745385,0.005694996771216392,-0.04154840044081211,-3.973849736003493,-2.1413180925387114,-10.169423405228734,right,right_1
108,0.11156009429991244,-0.11581044522076844,-0.11538637458980083,-7.290258759673763,-2.7970918118276287,-15.562486986131088,right,right_1
208,-0.22205782006531952,-0.019487959802150723,-0.4409884480208158,-10.14638773847922,-2.153860240845559,-21.32217377733857,right,right_1
308,-0.8546919987529515,0.05619184282124042,0.08912497512996197,-9.030082111099846,-3.4513031253439057,-24.161102632266644,right,right_1
408,-1.535192967247963,0.1891350630201399,-0.09396715446412562,-1.3310151852596637,0.9231969696360729,-35.064739783646836,right,right_1
524,-0.9491497132129967,-0.31081308510005473,0.022617489999532697,8.441663875424185,2.932021558550996,-30.143407486639642,right,right_1
624,-0.5271166524875909,0.22035320810452103,-0.9052455434262752,-21.048510295410964,-11.263115130039841,-27.42851315949171,right,right_1
724,1.0716570987891405,0.029589374838769434,0.6133645378112793,2.8762658705825355,-12.403958212012487,-34.16456524726876,right,right_1
824,0.8999019904412329,-0.20136837551891804,-0.12454349451363086,5.2025119752295765,-3.359016810929867,-44.75732463102853,right,right_1
924,0.9677674660518765,-0.1632572560504079,0.04577332465946674,4.885549789719142,-2.451067384842201,-37.34008070185318,right,right_1
1024,1.0617510601941496,0.25031565403938294,0.15687690736353396,-0.6750550231507461,-20.792974135540568,-60.75303002564602,right,right_1
1124,0.07600537218279205,-0.1451360545568168,0.5423720162212848,1.7671010992587042,-16.03465625590678,-74.92393085518412,right,right_1
1224,-0.5373977714726701,0.539803627038002,-1.1229185725361108,-18.57830237263686,-24.33890270164583,-89.25489716792147,right,right_1
1324,-0.7711654281519353,0.11150821798220276,-0.22571955744326114,4.328704103481866,-13.399337047684076,-91.94779487084739,right,right_1
1424,-0.8492965694501996,0.37042101997509597,-0.42799043475985526,1.876885611274375,-22.63256093753115,-67.77562562457803,right,right_1
1525,-0.2690121894692071,0.09618073886036872,0.6074041681021451,2.488987954783877,-11.281807650250874,-55.997169306566136,right,right_1
1641,-0.1557673021538183,-0.1960147395312786,-0.07482873875200748,-1.2842505875598789,-15.22173397108103,-47.33925908069841,right,right_1
1741,-0.41014373935870824,-0.5975846387468278,-0.31425767259597776,-2.1441893333110555,-19.98462124726956,-40.109001825335916,right,right_1
1841,0.6089123441753909,0.39527576750740406,0.9738415252685546,4.166478146070777,-12.308327025895846,-33.48175806613175,right,right_1
1941,1.0601426020842044,-0.1573410177439451,-0.5373638326704502,-2.8142874533933706,6.076669894172251,-33.3686603787601,right,right_1
2041,1.2639303867697715,-0.097567809304595,0.4549053296923637,-5.568906801084332,-11.01527915468499,-22.882878832875654,right,right_1
2141,1.0565982805408536,-0.0971250339731574,0.133556822052598,-6.209314302288014,-6.694706818296847,-31.955306409282286,right,right_1
2241,0.9431045147646218,-0.5406906390056013,0.17023264802098273,-1.6482079963762921,-6.143807665505714,-42.48682631694372,right,right_1
2341,0.12084317869096994,0.17647928732559084,-0.36477263882458205,-11.855143974465499,-1.572276463208143,-44.72654779862845,right,right_1
2441,-0.3614817075204104,-0.27461817451640963,0.30350480791330336,-2.583520547661204,7.534314225323012,-30.02045383629566,right,right_1
9,0.015597564767487346,0.027198095788061618,0.015605565410852432,-1.9759765016490392,-1.2447075275252073,-15.1044391324644,right,right_2
125,0.7537628963217139,0.006738076083362102,0.10934183372855186,1.4907193087631363,-7.07204574163608,-28.694000363627918,right,right_2
225,1.1755211586937309,0.19148717910423874,-0.37025486962795257,-4.820183171814827,-23.85833571428561,-41.864080404273224,right,right_2
325,0.5742006944194435,-0.15104191759973765,0.2001677675575018,5.175825999255514,-15.823214089770692,-61.70979609439223,right,right_2
425,-0.1366899689791724,0.6408757912017404,-1.0558569606542587,-17.35525796400311,-8.291604619359006,-72.15409790144719,right,right_2
525,-1.2675155517801642,-0.2726150180004537,0.16864333300292492,-2.6011987847804896,3.641777037614874,-71.98888928580293,right,right_2
625,-1.344518127439916,0.06953837725892663,-0.3098515465915203,-3.720691335737909,-15.896676189388764,-53.19482465237995,right,right_2
725,-0.6422586969275027,-0.10239347589537501,0.5579582924097776,2.2323350589841855,-3.108238945033444,-47.624153101168815,right,right_2
825,-0.574213334705308,-0.44939270375072954,-0.1561474240452051,0.15314073859791372,-11.177578109742834,-40.492305211367864,right,right_2
925,-0.060052226310130206,-0.15172186268791554,-0.49070145021677014,0.9609367530081552,-10.109740358487516,-34.31380488063354,right,right_2
1042,0.8103533830717206,0.3547160858429968,0.31305998724400996,8.060650310311487,0.43381375552210055,-48.59323058589398,right,right_2
1142,1.6195941287264226,0.08111410263180732,-0.38131285473704335,11.547820466534422,23.237978660277324,-28.846159902862876,right,right_2
1242,1.7270768905848264,0.576521830843389,-0.3379880922734737,-14.596821180896345,-26.37925096145789,-21.787335273025825,right,right_2
1342,0.7637916114483028,-0.10097878679186105,0.6796873140245676,-0.2717000159846413,-6.046099674994566,-43.99087495331555,right,right_2
1442,-0.2959457708358764,0.39340734328702087,-1.124656356114149,-22.763610069588893,-28.29389300469045,-56.58889250002644,right,right_2
1542,-1.6678323821946976,-0.2572242643840611,-0.018079262048006056,4.775868477592962,-4.164299742612367,-68.794853773284,right,right_2
1642,-1.084094993949309,0.02419613749310374,-0.8516869717180728,1.447199904692754,-15.280091107349618,-42.28777411396204,right,right_2
1758,-0.572579924817197,0.1265128948904574,0.641912586903572,7.568000718309515,-8.223473482388128,-35.32701221758616,right,right_2
1859,-0.22788276335913688,-0.008021393892168998,0.03963116864264011,4.953529381867809,3.6879179536660724,-18.155197766763955,right,right_2
1959,-0.13132135461810976,-0.42495881197899577,0.2413631167769432,1.69614407824044,6.150533694290884,-2.8352522921639016,right,right_2
2059,-0.1999444801956415,-0.0012706044577062128,-0.17795242861807345,-7.310274629036485,2.683707896841067,10.33344783682565,right,right_2
2175,0.6728017192292958,-0.055590515927225345,0.7274275548428296,0.641849098005377,15.293585853602272,7.792567092935779,right,right_2
2275,1.1254197417020797,0.2689686243221164,-1.2538000378996133,-3.031443499656994,7.776908030489879,15.477333310201246,right,right_2
2375,1.2115721307620406,0.046627018879354,-0.025682722789049147,0.06398892072395536,-15.471686451304938,-3.8128250381126807,right,right_2
2475,0.6690181090373546,-0.5731866950713098,-0.5035661924868822,3.2288257213866074,8.556619374250085,-17.67802367587394,right,right_2
8,0.9591190263025462,0.25838570937886834,-0.7312766314864159,-7.311046440412696,-14.947076696629184,1.7165025242787206,right,right_3
109,0.8327855796322226,-0.07862506229504942,-0.2326876428902149,2.9515055269321033,-10.991732931295017,-19.508650977220757,right,right_3
225,0.16359969454621895,-0.038310587563365694,-1.280745912492275,-12.111510856093696,-15.92943719174273,-40.646756279069365,right,right_3
325,-0.6385003673072904,0.11607552589774131,0.5548211634278297,-7.124097332640277,-2.2792230269758535,-55.8609275231919,right,right_3
425,-2.032073106099665,-0.2912535213664174,-0.42877895478904243,-4.557297301510676,-8.64715438547225,-47.86542611850493,right,right_3
525,-1.3088558624282478,-0.11981442016512155,0.1869043813586235,5.170023753555588,-14.273940209583271,-32.605144267295636,right,right_3
625,-0.8738004577182232,-0.284486219188571,0.2417670214027166,11.390485351455885,-9.955223550215257,-36.66996742728865,right,right_3
725,-0.44949601799473166,-0.5791361049950122,-0.8512889123111963,-1.287190557110746,-26.736372524853884,-36.553584418926214,right,right_3
825,0.7393086929030716,0.19651655157357453,0.7888269031792878,5.913432214990354,-25.16514214780581,-29.45315881440191,right,right_3
925,1.6475409970551729,-0.0363758201085031,0.484798948174715,8.965629884770665,1.6244414993855865,-42.236588676321965,right,right_3
1025,1.4977701223045587,0.5408332623466849,-1.127985208275914,-7.4572048046881525,-34.8411467109773,-50.93124873501895,right,right_3
1125,0.49051038462407887,0.09111921768710017,0.7377846982061862,0.34357996631450344,-0.10330247573034383,-72.65382869207117,right,right_3
1225,0.36063071671426294,0.25816037619039417,-0.321161460635066,-12.738210594519986,-18.08231281813075,-81.75547240265253,right,right_3
1325,-0.7448637697469442,0.11697072117179631,0.4520920258373022,-8.844775663822814,-5.5670865556705245,-84.99503795617875,right,right_3
1425,-0.7943615948222577,-0.3223953863441944,-0.40617315522730346,-3.5542528591562155,-16.791545376329033,-73.11692234798721,right,right_3
1525,-0.525610851034522,0.08189443935453891,0.3932558059871197,3.7452620875033835,-8.569060563823264,-50.61421525940905,right,right_3
1625,-0.036978918834496284,-0.28534824284538624,-0.021944120782613753,2.569798484175237,-3.041222409557748,-35.47495411500863,right,right_3
1725,0.11421347661921753,-0.7982178318589925,-0.10120470450222492,-4.975017583883493,-8.648479442171233,-16.276518377058807,right,right_3
1825,0.5701924451587721,0.2579838505797088,0.8815209689676761,0.5423397518223438,-2.568108866129305,-2.5532668650628674,right,right_3
1925,0.9766746298026293,-0.1999213915809989,0.08972294102311133,-5.341262145576509,17.52303131568072,-12.164271506111106,right,right_3
2025,1.0162238923154772,0.00047901568859815593,-0.26662206119596954,-5.886719772033257,-3.226907932333715,-8.2515182391202,right,right_3
2125,0.900850231076777,-0.17926263443380594,0.28786826284229755,-5.972380589508972,0.10076043139969582,-19.65088795913898,right,right_3
2225,0.6616968262385576,-0.24599866762310266,0.34524083988070486,8.5822744185463,-4.390380284800258,-30.93085658095583,right,right_3
2325,0.5376371697191149,0.49890112328529357,-1.9840864893049,-8.350448406605958,-10.61315176730049,-32.301890698336244,right,right_3
2425,-0.3439657784435898,-0.12556129325404763,0.9506734156489371,10.340429997704696,-0.19106016128125267,-34.6434639609242,right,right_3
10,-0.1214917057275772,-0.03196282597184181,-0.13417641525566576,-4.484966451973887,-5.235073621437143,-9.209592289092475,right,right_4
110,-0.3675013331361115,-0.1867740329772234,0.12115502111911773,-1.3879053249605806,2.461642865554908,-13.695798847287541,right,right_4
210,-0.9253427211679518,-0.1361918467313051,0.11016191793978214,-7.188284035365472,3.59950969259672,-14.005055298753733,right,right_4
310,-1.326830495058,-0.1767936139717698,0.21659166361391544,-3.1769602530372927,2.0444958921855494,-15.7964038897311,right,right_4
410,-1.049132913096249,-0.32159239939823747,0.11953648000657557,3.203342072149878,3.0698605389739653,-9.941517921871979,right,right_4
510,-0.35062180226668715,-0.13698138967379928,-0.6628980917870998,-6.998724941556461,-10.564128084532722,-12.177626233485773,right,right_4
610,0.6719466367699205,0.22828590079993008,0.798248811519146,12.883764487053895,2.7472510676803994,-9.22905832822701,right,right_4
710,1.3900250562481582,0.39801512934342026,-0.6492991900235414,-5.0063357087752935,-1.693213180034564,-21.707645748431997,right,right_4
810,1.1307630024261772,0.013733487928658724,0.47128071043193337,-5.17037081254279,-10.704506401223057,-43.037554715005605,right,right_4
910,1.0025181691765785,-0.017716273954510687,0.09441782084107399,-0.09036046787235971,-7.450485606092153,-51.55197291169512,right,right_4
1026,0.22022720710467547,0.644614100947231,-1.0005822326779366,-17.432331526144825,-21.16339578479787,-54.11857358667832,right,right_4
1127,-1.0259339699469505,-0.34404052418023345,0.07707914802730083,2.4874829652889474,4.864059880156166,-46.182385544743745,right,right_4
1227,-1.5696929104819892,-0.20723916724845765,-0.49165655898451804,-11.966650227760542,-24.335409059885368,-29.330563748989352,right,right_4
1327,-1.3869048784010112,-0.01534369960427284,0.8421984278827905,5.70593832508136,1.4591320317293546,-31.577607193464335,right,right_4
1427,-1.00486078677997,-0.30793942935988305,0.15369301663041113,3.906354660399073,-9.542439360178243,-24.85468272927205,right,right_4
1527,-0.659149991299957,0.1940488462857902,-1.0226426733165979,0.9431879728413481,-8.035757685881375,-19.994267181924908,right,right_4
1627,0.9367476930838078,0.035465573395788666,1.113251749524474,7.6466836437744155,-4.368205648772989,-34.654805490041014,right,right_4
1727,1.3626374292373657,0.28401962459012864,-0.9617951136440038,-6.422217275132835,-3.7104268420758495,-43.89433705958659,right,right_4
1843,1.060887940558791,0.004859568860381841,0.9097732499837875,-10.327605463764352,-12.40691397637581,-59.754176331234184,right,right_4
1943,0.5751429802382364,0.07145297870859503,-0.07849252195656299,-4.222955272770321,-11.569857218117821,-77.99694224579957,right,right_4
2043,-0.017299802108108997,0.766626615678519,-1.0953455059558153,-28.97593349709312,-35.73894775661879,-87.24796219352912,right,right_4
2143,-0.8450979487165808,-0.16355287799611687,0.49333764393925666,2.5498280782591776,-4.584269718543056,-86.69423192732701,right,right_4
2243,-0.4351475034402683,0.08760054204165935,-0.4939309336572885,-7.649081893946736,-21.495448846392623,-50.98387875766848,right,right_4
2343,-0.49946620982214807,0.04344897336512804,0.1509416720956564,9.309104730204975,13.161413384362207,-27.199189558108532,right,right_4
2443,-0.17675485286395995,-0.18021861998438835,0.2573217334091663,7.347305353395355,-3.1324244314410477,-3.5561781187285124,right,right_4
9,0.834741097614169,-0.07938347944691777,0.17315175033807753,1.4662981808291673,-8.791924513798902,-39.48261200674322,right,right_5
109,0.8647060277670622,-0.5168203724659979,-0.09930500836074352,-3.762027213708003,-0.7800254257403216,-42.3258899846253,right,right_5
209,-0.16908873868286609,0.08742854647561907,0.2507785953760147,-1.2918986918830004,-9.980092268983272,-49.472521818884736,right,right_5
309,-1.7299314032331108,-0.5514820821329951,-0.2546574826359749,-2.510840077816275,-7.645989525800013,-41.878789216650844,right,right_5
409,-1.2797579243682324,0.2502911041200161,0.09258008401989937,2.0689883102189803,-5.7535695030320895,-26.63489469680771,right,right_5
509,-0.7260055592156947,-0.14112769569829106,0.3078776161700487,1.8288318153687504,-4.7473968340377635,-25.870605066419746,right,right_5
609,-0.7266307053767144,-0.4940373166412115,0.20759645625352857,5.023426549625958,-3.302226562745561,-20.739473263771856,right,right_5
709,-0.053276284168101845,0.12129077632799744,-0.6698527332305908,-5.964744438016898,-14.650340835685272,-16.930903433512096,right,right_5
809,0.7758166149586438,0.025523586704581974,1.0468757818192242,11.16093806137739,8.460633018296603,-32.60596388999604,right,right_5
909,0.8847169885300099,0.3741933781206608,-0.7658066775977611,-7.89765979860018,-9.16384795089996,-29.740897608661623,right,right_5
1009,1.0728059034980832,0.08845920469760894,0.2135433819591999,-8.13402105614941,-9.677012869847712,-45.382437204246436,right,right_5
1109,0.8443652505278587,0.05273717232272029,-0.1523135449707508,-2.774238425751589,-8.486092548427827,-61.015917176610635,right,right_5
1209,0.09957429028879851,0.4705841064698994,-1.0643985790282486,-14.804371846752815,-14.420866970140354,-67.5080256430861,right,right_5
1309,-0.6414965534485876,0.0034555472813546655,0.5572890148460865,-4.320609048654932,-7.182411780226554,-69.49802174833682,right,right_5
1409,-1.4054614025719463,-0.15722966632395982,-0.5778583401441574,-4.068199407877111,-20.737497631554433,-54.895961812347075,right,right_5
1509,-0.709700540298596,-0.1103857898235321,0.1985813751488924,2.8363861035661238,-9.142320902183373,-44.447684835195176,right,right_5
1609,-0.2178893935405649,-0.4002250604778528,0.1551496451795101,6.893155830197452,-5.2563530757963175,-28.61638721654177,right,right_5
1709,-0.0790705045076087,-0.37491876978576183,-0.4814519758343696,-1.0988184221134372,-13.102577281078071,-11.351808551507043,right,right_5
1809,0.8890738685652613,-0.008507277712970971,0.8081020970135927,8.10272342182512,-10.508610599411567,-4.610113019928269,right,right_5
1909,1.079646782368794,0.37770927728712556,-0.5763204630523919,-3.9998040279627185,-1.064369402539126,-13.391618933921963,right,right_5
2009,0.8731545610301196,-0.05185454426929354,0.1781295387506485,-2.4564758274477936,8.734418589855625,-14.563851857772693,right,right_5
2109,1.1788782140366731,0.1683145394399762,0.16485446211397647,-5.268967154532862,-4.269149122787586,-22.11869165532524,right,right_5
2209,0.6286115721080452,-0.25965324509665366,-0.41691549851596355,-7.673357240030607,2.5515845040929284,-38.66402408000094,right,right_5
2309,-0.0047165253941901025,0.050083735204488035,0.691311116322875,-7.143717477917962,-10.187248491415174,-33.237326086304506,right,right_5
2409,-0.8409549306277185,-0.3953922334939241,-0.34443946036994455,-6.581306468167595,-5.59667365449455,-13.392213160379754,right,right_5
9,-0.0017405600570142268,0.0932756650686264,-0.24473054738342762,0.5072500818482265,-0.7991359215120472,-7.907771893666384,right,right_6
109,0.42584615274015813,-0.05831716441214084,-0.062137599483132355,2.54228434776431,-1.8226818703513885,-10.700417679231156,right,right_6
209,1.0381291423924266,0.08757701503559946,0.3503858015537262,1.6665475879063052,-10.371433933894677,-24.123512686169477,right,right_6
309,0.7544407955832779,0.1806875526703894,-0.07480652692019939,0.36097907281231756,-14.39990853467217,-44.71288059009926,right,right_6
409,0.14545633601974695,0.1711390953414142,-0.6042331368505954,-12.356853812401493,-6.201628631924457,-64.61180686894726,right,right_6
509,-0.6419646093517541,-0.21043825555071233,0.33657588738799094,-7.895212029556377,-15.71478483669674,-63.146157556089236,right,right_6
609,-1.4049794642738997,-0.16229557141140102,-0.5374439121693373,-5.4299231236451515,-15.360774424467687,-52.04018800337846,right,right_6
709,-1.0434018220983445,-0.20415420684516428,0.7059329313933849,8.720681371887437,-6.553960952051803,-43.03486362047262,right,right_6
809,-0.28175734221395105,-0.13283493751883507,0.260686825928092,4.117581675576303,-2.4194873648844126,-29.478136816196645,right,right_6
909,-0.09029376318100839,-0.485598135728389,-0.21658815648257732,-8.418127897317968,-14.512123420093602,-25.43631773332824,right,right_6
1009,0.6686901191920042,0.1940598060712218,1.0954495508521795,8.297309534863258,-12.363442383629616,-18.69435240927725,right,right_6
1109,1.2454535037063061,0.3028673867926001,-1.3116916703760624,-1.6830095177447997,0.23424205795710132,-23.10566765077042,right,right_6
1209,0.84144410238415,-0.08454831486418843,0.7219938393563031,-6.969977102226701,-11.00994221562227,-43.47865857688878,right,right_6
1309,0.5814804030988365,0.08139467313885689,-0.11117606341838836,0.7974763456262927,-11.526857762198006,-55.643471375491615,right,right_6
1410,0.07077829431742429,0.731371324032545,-1.3226187225818633,-22.258449278574748,-23.43303691014184,-73.19101624010351,right,right_6
1526,-1.1390531302571296,-0.016180150428414343,0.3147527626365423,0.7079460659032069,-3.5373374687898558,-76.18304890791929,right,right_6
1626,-0.961665934306383,0.2077707899071276,-0.7112333758890629,-10.120972604577602,-25.408052702995434,-51.49597219069018,right,right_6
1726,-0.35022487537097186,0.050572687765210865,0.4692021505922079,5.5225652482262655,1.9813915610003898,-35.21992509668411,right,right_6
1826,0.0164930888351053,-0.46255379861891266,-0.04324585200846195,3.1792801694775696,-12.572899526038167,-17.61449437885636,right,right_6
1926,0.009419131860882043,0.25987404824048277,-0.4217348814964294,-3.330508881994703,-15.245692567142141,-8.989585065737193,right,right_6
2026,0.9186191120013594,-0.12296177828013896,1.0710638821363447,-1.562898826921127,9.458445108860012,-22.71502010383342,right,right_6
2126,1.3727613483667374,0.32867548952698705,-1.5446721587330101,-5.025055549743006,11.285813556199086,-23.647089916088163,right,right_6
2226,0.9087308282587677,-0.40716465048268435,0.6953454864054918,-10.20109328486279,-15.252399812907093,-25.32505224420144,right,right_6
2326,0.6934939402546734,-0.4261278557583689,0.0340022228449583,-3.785068003099395,8.211400269256485,-36.37925067055081,right,right_6
2426,0.3742840520787984,0.34223478993251916,0.28620471354424953,-6.848598664260051,-0.8970913462980494,-38.06118475366645,right,right_6
9,0.6992140714671462,0.02819879726320505,0.3129197019904852,1.4083120092098746,-2.1851984294180467,-14.288890639902784,right,right_7
109,1.007394616106525,0.17772651090770958,-0.2078694279760122,0.19168972596387066,-4.839638111891962,-23.277088323464817,right,right_7
209,0.5797860202711075,0.17182839277982712,0.30997955688536166,-5.083996667185631,-13.262971467131127,-35.79080255279753,right,right_7
309,-0.04632803593277931,0.7355325353652239,-1.49329151558578,-12.85519636707667,7.671134867229415,-53.84399656694922,right,right_7
409,-1.462925311155617,-0.669525985494256,0.8647750013500451,30.14853012851715,5.2879405662735115,-45.609510258298094,right,right_7
509,-1.4214856317862867,-0.42714521610736844,-0.8812082497566938,-36.15361537131944,-2.9428612822072178,-47.01005079289297,right,right_7
609,-0.548060364056006,-0.2947774577088654,0.8896984302043914,2.2854662467640683,5.305884326996781,-47.60603943948994,right,right_7
709,-0.43886480693034824,-0.6910536344304681,-0.557498858204484,-2.7344361386935745,-21.861890202911102,-12.878812599905636,right,right_7
826,1.2907456207200885,0.5513657622769474,0.3171118929833174,-7.721862682195099,-36.36393055624247,-43.21451808621146,right,right_7
926,1.3804600861757992,0.13528203841000794,0.145569331407547,21.622507440427785,14.852763737022356,-35.79623255318769,right,right_7
1026,1.1524009068038314,0.16698358309715985,-0.6488040999829768,-14.845810604447282,-30.677244826884085,-39.16330749323429,right,right_7
1126,0.13110714561184866,0.20654519363492727,0.5963736555218696,-0.8330905527843259,-12.940682160954905,-52.42128523830849,right,right_7
1226,-0.006922940264130011,0.5140063379585743,0.09101473439931869,0.41328620894100904,1.995310419311818,-64.13576317436487,right,right_7
1326,-0.9556194937489926,-0.27536095570772884,-0.0298719911724329,-16.427562887911762,-6.160716225682903,-70.8466972414692,right,right_7
1426,-1.225252500263974,0.027030045744776725,-0.7117237897545099,-11.961063986793118,-9.00527913290259,-46.29369713764744,right,right_7
1526,-0.5317037610821426,0.19782617286741733,-0.19276245973706244,1.7517943251635881,-16.598805975687736,-48.67534995028504,right,right_7
1626,-0.037672764583863316,-0.4259245882712304,-0.1287111355870962,12.04400382765823,-8.243828299888413,-31.511781245338337,right,right_7
1726,-0.2616340619166381,-0.17540435157045722,-0.4281739746332168,-6.180668062022157,5.001878156568214,-6.795883691132715,right,right_7
1826,1.106645702322945,0.3382181016370654,0.8545499599337577,-21.660257895970446,-26.39937611384733,-34.918723999570304,right,right_7
1926,1.011835228902474,-0.6113062901072204,0.35666941186785694,16.52156336636406,23.100061773009134,-11.014059112144496,right,right_7
2026,1.1260080629840492,0.4189318067744374,-0.5243249028772116,-3.5909057886766194,-13.061433929065206,-16.20407909826894,right,right_7
2126,0.665671794284135,0.09955109207630157,0.7137351295769214,4.308387705795663,-0.28080385773547495,-37.943463028226695,right,right_7
2226,0.7324226597163825,0.023076778074353932,-0.7715127802848816,4.800639866165305,7.66261506001347,-35.063967972270625,right,right_7
2326,-0.08229887370327488,-0.16476532252579926,0.8414484862983226,-8.474367674943853,-8.477210741185871,-28.308456675548207,right,right_7
2426,-0.6427117013920098,0.07597688587382435,-0.4585574224591255,0.8458187170243504,18.44100190994126,4.969447137728524,right,right_7
10,-0.2635871504794806,0.0010081541292369365,-0.29293489858210087,-2.8255051853314703,-0.9170834167203825,-15.526746313751703,right,right_8
110,0.7890661187626421,-0.03829480547234416,0.4410843096107244,-4.59855121721073,-6.2351149149909135,-20.44797957301593,right,right_8
210,1.094901050123945,0.31870091574043036,-0.6682061350673437,-5.015518898114376,-19.151334753433417,-30.58623597128825,right,right_8
326,-0.3248461404971778,0.37081396481543777,-0.9616460605621338,-17.169341922342657,2.7070048183263338,-67.19108437503,right,right_8
427,-1.4898122951678932,-0.3864379426658153,0.2590221075862646,1.1089718184797785,2.3266672284980547,-68.51865458362704,right,right_8
527,-1.4444094112560153,0.10985972012281417,-0.541439119285345,-1.392791258094667,-24.47767165501298,-50.02463333025355,right,right_8
627,-0.6867188200965524,-0.1365475283011794,0.5173071330696344,6.621603303610201,-12.356295444436844,-45.42936060384442,right,right_8
727,-0.22471385099943725,-0.40658728898614643,0.041486441120505334,0.3572028319749468,-15.582019619610032,-38.540158599402766,right,right_8
827,0.432348483838886,0.27678967333659527,-1.0441431419849394,-12.932385188660632,-37.0175318484885,-22.614882700411865,right,right_8
927,1.1643852860428392,0.059816755320131774,0.9789408942341804,6.312780569156305,13.052243909536955,-43.94507511983603,right,right_8
1027,1.135431944085285,0.310354673808068,-1.007256303614378,-6.722346459433774,2.121967739733242,-45.79856989452405,right,right_8
1127,0.8948745907332748,0.062266924951225516,0.9384025476187468,-5.520593457990247,-4.719456664577357,-49.8934493019597,right,right_8
1227,0.6231572522249073,0.14578604289814828,-0.3536696455299854,0.04317737434356617,-0.754259284148389,-62.22833722599043,right,right_8
1343,-0.48013355017956344,0.24112740832492707,0.05762742858231067,-15.087355121802906,-19.45301054869454,-75.29716654237947,right,right_8
1443,-1.4423895958662032,-0.20075886531844733,-0.08310381514430046,-1.9675322534007877,0.06139090752873159,-67.70817067633499,right,right_8
1543,-0.9478504671826958,0.289525382399559,-0.27673136727809905,-3.6075582167599336,-16.162225406582397,-46.027995948744774,right,right_8
1643,-0.45666276781894266,-0.10321180654093623,0.23282091388106343,5.426861918236516,-0.03334832525141453,-37.44653261516242,right,right_8
1743,0.10590641591977328,-0.5523311001777649,-0.18365034799873828,0.2395041050627879,-4.934649458341425,-14.255443203537231,right,right_8
1843,0.4671825909307226,-0.004144406328350305,0.3504091824293136,-3.1131065220341356,-8.22721984114788,4.419344982636167,right,right_8
1943,0.4874986355874687,0.030684768860042094,0.6022574528634548,2.7685025609526592,4.391623806116024,-6.533482337372812,right,right_8
2044,0.8273732722599059,0.033781419701129196,-0.9236398627728223,1.5538558699034417,14.720445897326284,-0.6834483651453397,right,right_8
2160,1.017704778522998,-0.11486278910711407,-0.1626747799873352,-5.845000549695996,-4.292794383920524,-14.993067775405464,right,right_8
2260,0.6313370515491813,-0.36101416307389733,0.32106384547948835,7.105328826574729,-4.242683420414256,-30.1447154678657,right,right_8
2360,0.4334763188250363,0.3261722745344043,-0.940073111179471,-7.694127845296617,-8.101580218912789,-28.06677896950377,right,right_8
2460,-0.39939438180737197,-0.08636471663638949,0.3816524619549513,1.4891863581812916,4.469412830573298,-24.8944634585455,right,right_8
10,-0.15883494609612972,-0.1722536324545741,0.10521920084059237,-0.8837221047713957,4.884516723607177,-4.141207299915377,wait,wait_3
111,0.1719774093290791,-0.0078033672273159025,-0.11458791768848896,-6.824276360625635,0.6431588401395798,1.472176732548727,wait,wait_3
227,0.04071048831194639,-0.11450403879731894,-0.1134136132121086,-0.7055797255209147,1.4663035169144565,-0.12906417503127332,wait,wait_3
327,0.0029386838003993034,-0.05465308894664049,-0.11389642829298972,-3.079805721292327,1.4371878078648672,1.5314886011972366,wait,wait_3
427,-0.000805799957551062,0.0055693245649337765,-0.03268003433048725,-2.791186899846741,0.5700289651916053,1.0667893172177203,wait,wait_3
527,0.0982379088521935,-0.08714782983809709,-0.10210369916856288,-4.740790333563068,1.3816116258055313,0.9035814133917367,wait,wait_3
627,0.018013704264815897,-0.12199439455270766,-0.13102759583592413,-1.1577294440350319,2.04619490174159,-0.2131148954720767,wait,wait_3
727,0.04852351841675117,-0.07961977242082358,0.04365618637502193,-1.4336030257676684,5.028926559455111,0.36110841951972467,wait,wait_3
827,0.04093313635298982,-0.08883271418511866,-0.0162561382740736,-0.6257886552240325,1.3768532251098538,0.29421229280857686,wait,wait_3
927,0.07134500655578449,-0.053098260720074175,-0.02688040814101696,-2.239839942778149,1.5083386355008306,0.9044476734775647,wait,wait_3
1027,-0.014205927745997904,-0.08993424568623304,0.052118309772014614,-2.270587106544019,1.5976152910901267,1.0614364766208402,wait,wait_3
1127,0.018549473375640807,-0.04614683414697647,0.07120294947028159,-0.1627930765556111,2.353864828329634,0.06404108095765604,wait,wait_3
1227,0.0313048552534543,-0.051760728505998846,0.017542670953273772,-0.9538978161816339,0.8138963871952678,-0.3102071551017187,wait,wait_3
1327,0.049726044340617954,-0.007891337771713733,-0.0772720402508974,-1.2439408387908732,1.6672286858326024,-0.16335944864819324,wait,wait_3
1427,0.04748385490439832,-0.05759264952987432,-0.015317980641126631,-2.6097486875174645,-0.22924441387748828,-0.26468901356460833,wait,wait_3
1527,-0.008170520039275288,-0.0745271254569292,-0.17378829467594623,-1.4439239752120865,1.7045152221202309,0.37599409644425347,wait,wait_3
1627,0.007396466926857828,-0.04640241634324193,-0.01382277364730835,-0.0012979894063536537,-0.5260028464621725,0.10130016308647227,wait,wait_3
1727,0.0334705819199793,-0.03481602344587445,-0.08181319081187248,1.5743651137119918,-0.4965588080847467,0.07475972883866878,wait,wait_3
1827,0.06586657514469697,-0.03766542152762413,-0.004619476494193077,0.27029563837783677,-2.4196549179624895,0.335129901733287,wait,wait_3
1927,0.039211354061681775,-0.030983897937089205,-0.06087853933274746,0.018381399758253026,-0.20937049772366847,0.7157140720627742,wait,wait_3
2027,0.06271461391979828,-0.049745735421776766,-0.08156827614009379,-0.12188576627550891,0.09760281627010041,0.4444438777481676,wait,wait_3
2127,0.037701260025985533,-0.06298135683089494,-0.09485328964889049,0.1986334803690481,0.9303847832421592,0.8134923921780322,wait,wait_3
2227,0.039706352770701045,-0.07966273477971553,-0.030500352203845976,-0.08178567229751116,-0.6082992621631272,0.039948655877493876,wait,wait_3
2327,0.03483370523303747,-0.05556158209368586,0.033895255339145655,0.05455849721321726,1.0585983195772883,0.4661119591989455,wait,wait_3
2427,0.10543861574493348,-0.026608313201367854,-0.05515782359838486,-0.8783562441264102,2.1292485079450643,0.6479995766312677,wait,wait_3
11,0.4598893286500126,-0.5487180242471397,0.0115156657487154,0.5422629121941812,2.6262830813941846,9.486236294819147,forward,forward_1
112,0.7549255103603005,-0.7874770960055291,0.9363619817018508,4.080649988960397,6.726993122503497,11.957189561986429,forward,forward_1
228,0.6774788441948593,-0.9309623146153986,0.47958325935304164,-7.149244381616971,-3.9280131902571838,7.730200635624392,forward,forward_1
328,0.35101087464950975,-0.9169818661883473,0.1307072778403759,-0.5596718370889272,-6.52199523984932,-8.845714814833691,forward,forward_1
428,-0.08364511894676833,-0.4739461302489042,-0.43886955617070195,10.060767902138524,-20.5193465121061,-16.639560006917907,forward,forward_1
528,-0.44408721775375304,-0.402031817638874,-1.7064578809261322,-12.236367567895176,-1.6857806535571207,-35.42204405460313,forward,forward_1
628,0.05428403643853962,0.48151232771947977,1.1859352929413318,9.73616999202284,-11.1391950079283,-25.298281317749577,forward,forward_1
728,-0.8308694438125938,-0.04468552942276001,0.28564240348637104,10.055267892309372,20.427905647045264,-34.59621271224606,forward,forward_1
828,0.19457031287662685,-0.6236927473410964,1.2317851899683474,-9.917691660726035,7.275524334086752,-12.027886288764291,forward,forward_1
928,-0.013912753485701977,-0.7195685119055211,1.0722492925286293,-6.063469699827555,-8.240128898679204,6.767459005128061,forward,forward_1
1029,0.001319859560066834,-1.2766319013021885,-0.1455471195757389,6.104395339560625,13.012721019904676,-1.7885736131836374,forward,forward_1
1129,0.21611432842575012,-0.6655953680470585,-1.7120599387168882,-5.30818268565249,18.76994040527449,17.707699140270353,forward,forward_1
1245,0.08176310459244995,0.8057567029312253,1.1137468395650387,21.009617490729617,21.981848815304033,43.91835541980294,forward,forward_1
1345,0.6350423358079046,0.04413739402070641,0.24022213004827497,-3.2886306443158273,-17.02494318555212,48.83105435769924,forward,forward_1
1445,0.43079277882948513,-0.020415449910610912,1.4730623820275068,-4.171246471885093,-9.48611505896138,27.913707600014614,forward,forward_1
1545,0.38780433564819394,-0.4944675247520208,0.7186322539687157,-3.0005089325757717,8.726253098702875,5.524383786092781,forward,forward_1
1645,0.020971037966758012,-0.4847032327152788,-0.9850082314491272,11.05985382298214,-16.281058745309572,-3.465626672363657,forward,forward_1
1745,-1.0557349417097865,0.14232625783309338,-3.5364106240957973,-35.546507176753686,-14.917107534098461,-32.436916708038225,forward,forward_1
1845,-0.09138729403875767,0.45624826873391866,0.42009938924908635,19.01545838517977,-23.830302910384585,-33.51601146481937,forward,forward_1
1945,-0.7849844754721969,0.9681230014912784,-0.8033347364813089,8.644266069226981,10.326090869315902,-28.57484429846246,forward,forward_1
2045,0.542795246602036,0.10752616260871291,2.2922125272780653,3.9557241214935717,4.143928703412803,-14.69329418782819,forward,forward_1
2145,-0.11945987110640853,0.05606865483298897,0.5277759201139212,-5.678309356115012,-5.259424526488708,-4.404927307071916,forward,forward_1
2245,-0.29244382712952793,-0.6309063319817185,0.1895715547412634,12.442735757251587,15.372295246050205,3.2246006090547197,forward,forward_1
2345,0.609181699168682,-1.9528088691182433,-0.7456897722423076,-9.448431197763126,30.40512667525619,20.48998523641151,forward,forward_1
2445,0.43116723816506564,0.5595503839068114,-0.11609890677332878,8.333655532757835,4.536177075936527,54.5000020857831,forward,forward_1
11,-0.5312117397814988,-1.272458268879354,0.6629156274437904,-8.807270241316628,1.5832075406445136,-9.400467048090357,forward,forward_2
111,-0.4928371470712125,-1.1653108764551579,0.43619829113483427,-8.30737211105798,2.964680961841058,-7.210471904884258,forward,forward_2
211,-0.2915485953228548,-1.090120464783907,0.10825579205751418,1.543839931094147,16.020820000195624,-13.980925094189724,forward,forward_2
311,0.3065400108907372,-1.320909726706892,-1.64435710632205,4.5433261495634145,40.563503103276076,-2.6676302718650913,forward,forward_2
412,0.12693278253665194,0.9151599114581942,-1.9669816252470016,0.7667952959571541,-0.4599621742641424,36.599814554323444,forward,forward_2
512,0.7050614092558622,-0.18831454041749238,2.221104854875803,17.40208744850001,-12.203199315511949,32.947056706957305,forward,forward_2
612,0.6597987375322729,-0.22309549254998565,0.8121610170155763,-10.17822068887971,-20.674811862899347,36.04606721264842,forward,forward_2
712,0.15003990095034242,-0.6613062925510108,0.993966029408574,-7.8917294868533165,11.436728293457811,7.021144183733383,forward,forward_2
812,0.4509123145334422,-0.8901593257144093,-0.07656476876437664,-7.278661952236727,-12.613102873266508,-10.990996978411948,forward,forward_2
912,-0.8655277924787252,-1.5547294423669575,-2.3549311415195464,-19.6302932312441,-52.07442432659315,-42.39783919734221,forward,forward_2
1012,-0.2273996194846928,0.5223677043948323,-2.2756810791939497,16.77398495997293,-5.281986775751376,-48.86128135987113,forward,forward_2
1112,-1.5152793293796478,0.1699206594623625,1.4300234507679939,5.277378959382556,-41.36714999120895,-41.72548562072991,forward,forward_2
1212,0.4815924072183668,1.022782374048233,1.0380132609277963,14.913946864060037,5.5996511900858525,-28.271016993612783,forward,forward_2
1312,0.05754501099586486,-0.11494783704206346,1.2284113296210766,-9.125855877415411,-0.06955142278194977,-26.99600509067899,forward,forward_2
1412,-0.30824140798114236,-0.30710765471085905,-0.38308980128169057,-5.111372492265866,13.825584394348832,-12.571760591994067,forward,forward_2
1512,0.39098625361993905,-1.3726150717638432,-0.5869418103098869,21.189239513069904,54.33551064000168,29.743684325842988,forward,forward_2
1612,0.6625600920043885,0.8318537056095897,-1.3134540038734674,13.110787168460426,13.490299799503015,61.3835452784974,forward,forward_2
1712,0.7468116158790886,0.10836115212813019,-0.6061585519552231,19.442473274352505,20.270719088581174,44.17388645703146,forward,forward_2
1812,-0.09347288640746847,1.2022589434936641,2.43614578191638,11.58157867650721,-18.646080047318186,31.739964205130125,forward,forward_2
1912,-0.7155048426631838,0.010065759201347828,1.6686404837071895,-13.098688342119395,-10.644095939335232,-8.007640358389372,forward,forward_2
2012,0.5420472047137096,0.21084289082884788,-1.1636837136447429,-16.27705966955053,-12.8361597760862,-32.529742393953285,forward,forward_2
2112,0.26103425112627443,-1.7999743690133094,0.2736959451049566,-6.746910381010078,4.12376513120928,-73.1132340458354,forward,forward_2
2212,-0.46989458983577786,0.38723260017484423,-2.331900979065895,-1.6835441934907647,-7.327924691625444,-48.82943218777136,forward,forward_2
2312,-1.3589187009751795,0.08918678831979632,0.7362474056363105,12.900326842017531,-67.07754614045687,-47.252099036699875,forward,forward_2
2412,0.1046097637053579,1.3576518959097563,0.5919488248169422,13.82137102140458,31.56054196582306,-38.063377244390026,forward,forward_2
13,1.0201270372338593,-0.9573298047982156,0.4020943614810705,-9.01146557674333,5.58525784707052,19.477076720235083,forward,forward_3
113,1.1199424793347716,-0.9216894593574106,1.1088666663080453,-8.13125824463014,2.9872203726586886,7.842710072953781,forward,forward_3
213,0.6607059885703027,-0.8661649944037199,-0.20780279248058794,-8.036795020861572,-2.0682606816289626,8.362620657480567,forward,forward_3
314,0.20375099633913485,-0.8036594383910298,-0.23421441406607627,-6.739820217764781,-48.41398934659992,-12.558468190095576,forward,forward_3
414,-1.0180424129795282,-0.2995337123252451,-1.6891735686480998,-5.855934401896717,-6.289671477873214,-53.8120449420119,forward,forward_3
514,-0.2550504274763167,0.2935077300339937,1.534715412864089,4.962387710334493,-27.445656934308442,-33.449079026047826,forward,forward_3
614,-0.9514167082969098,-0.02259717786386609,0.8669476692140102,11.068544384927334,8.310378248066431,-45.85159606814544,forward,forward_3
730,-0.29341888270676136,-0.9412387939579784,1.1580407393217087,-8.842654890085525,-11.687200721832287,-19.80223470586271,forward,forward_3
830,-0.1184821486480534,-0.7382308345384896,0.46228141141831874,-0.7632660625078145,12.707226295123869,-12.261568404611584,forward,forward_3
930,0.8572110689017921,-1.1774587026275694,-0.3669026365906,22.23919326775719,69.43154351714509,21.344033797777197,forward,forward_3
1030,1.551384808114171,-0.207117294434458,-4.831020811289549,-28.15719359864181,8.797500509482571,66.30020914120689,forward,forward_3
1130,0.32209888761565086,0.24789850989505646,2.2854303197920323,47.50007246961177,-2.882830536148564,59.81629690173545,forward,forward_3
1230,0.1905580450279638,0.7082415005967021,0.4267424805253744,-8.823053100941236,-10.87133547924791,64.35383062399588,forward,forward_3
1330,0.1422834598709829,0.24979601407945154,1.9189087914735077,-11.921646965092975,-4.000848620018907,30.581673404922682,forward,forward_3
1430,0.21226649389117955,-0.530818794941157,0.4567009809374809,-15.985676969368615,-0.450085667363451,2.3362999296618883,forward,forward_3
1530,-0.28086013764590023,-1.0965487442657351,-0.5464058017820119,-13.879477148221172,-9.119799207168901,-15.25560317162783,forward,forward_3
1630,-1.0393730049736798,0.666412383518368,-5.464254417175054,-61.98490928397118,-13.182899451943774,-39.052549145653366,forward,forward_3
1730,-0.5384320464238525,0.23185221497938036,2.8154829526662826,33.85936848949049,-29.218634023965766,-47.53179186811732,forward,forward_3
1830,-0.38317448389045894,1.0072017969481646,-0.4486404240787029,24.15879573587447,51.125328560284856,-32.58164158636163,forward,forward_3
1930,0.7738024986572564,0.2055814631693065,2.307057045188546,-0.31812489181449727,3.6265004657624944,-24.247326940348884,forward,forward_3
2030,-0.4457418165603652,-0.27041516986861824,1.2219564543932675,-17.957151309137558,6.476199675238031,-9.686549521476342,forward,forward_3
2130,-0.2260988756170496,-0.3779747963555157,-2.359334929436445,13.241140474996474,39.85672537324691,4.758729398531284,forward,forward_3
2230,0.9374543069832026,-0.2211686161406338,-3.3705402629375456,-17.275612835638885,-2.9714552288372413,49.843950921044616,forward,forward_3
2330,0.5222263231627643,0.21360402610525486,2.530760586634278,37.21943224035408,30.72116635834185,44.81858801278896,forward,forward_3
2430,0.151507836344745,0.9345087550505995,-1.3196855917394161,-9.751642931813857,-24.721270351761483,52.83266411692377,forward,forward_3
13,0.3755532317643985,-1.425075911363214,0.8160521792352199,-9.236481890081167,2.257757023074973,7.2075579754296015,forward,forward_4
114,0.3698606826785952,-0.9496388119041919,-0.058636897885799406,-3.146066240204267,-35.34924106823996,11.382622949947555,forward,forward_4
230,-0.9431579254522919,-0.13267580143436788,-3.634124563872814,-17.902026559893677,13.807647463814732,-17.160269723577585,forward,forward_4
347,-0.1670905506029725,0.4226778614349663,2.5556530358284713,-5.278175103307685,-15.586281657652119,-15.969757505960608,forward,forward_4
447,-1.429379599906504,0.22241583972275256,0.49737610567510127,1.0472665021357082,-1.1326852747827107,-40.23325662671679,forward,forward_4
563,-0.293467982545495,-0.49236573016718027,1.1287678830862045,-11.362744538141879,-2.1630167497581954,-34.34725231699909,forward,forward_4
663,-0.04147862314023077,-0.60578182759732,0.6484498797178269,-7.918375762352829,17.76138101205207,-19.80071669631967,forward,forward_4
763,0.545883166147396,-0.9063178488329052,-0.9308902722924948,21.234820780495983,69.53653718506652,-0.5737348764248662,forward,forward_4
863,1.2126999657481907,-0.3042930356815457,-4.33043100426495,-27.80207157312534,25.70632364895531,50.23133876020023,forward,forward_4
963,0.8507487410198896,-0.044157706156373024,2.5293290925264356,32.594219379718204,20.931020796402986,58.042647038444876,forward,forward_4
1063,-0.20784717961158602,0.9790561911769211,-1.4196733216673134,0.9505175128727122,-48.6649270816116,55.35744354361899,forward,forward_4
1163,-0.2864976503425278,-0.10034311923682689,2.762175140848756,0.723836767811506,-12.707025658316999,16.482378571095698,forward,forward_4
1263,0.13227005191138014,-0.3790272280178964,0.4399187729626894,-22.700603282042817,0.6413479862358802,-17.55411209149886,forward,forward_4
1363,-0.1661441000657156,-0.07492284677624703,-1.3353414260327816,-0.4909745948297324,-3.8271547749913672,-44.95827221150489,forward,forward_4
1463,-0.7371518801953643,0.7854293696954846,-3.906688290077448,-9.583392320667993,3.3874553707562725,-53.94295234764437,forward,forward_4
1581,-2.135073461847007,0.23033406550139188,1.2729267631739378,13.35688912953974,-17.375608512635164,-65.09101294111535,forward,forward_4
1696,0.1877867902163416,0.47184974249154327,2.2608616957247256,-0.5380480451460486,2.3871545300140413,-37.56058311392329,forward,forward_4
1796,-0.09034885436911136,-0.23621479410305618,0.5897779105186463,-9.49036258285148,-5.010837230325155,-23.781817105013957,forward,forward_4
1896,-0.2072353678561747,-0.6312804259911179,-0.0006219312906265258,8.173577242953893,15.607340838410561,-16.252214856444606,forward,forward_4
1996,0.4780181289281696,-0.6551493773564696,-3.35607802234292,-16.60333097601287,19.627697759359496,27.707618594640525,forward,forward_4
2096,0.5151552157327532,0.6428225413553417,0.7785030775636435,18.152696209980437,13.709658154887144,61.95149599855147,forward,forward_4
2196,0.8849773930318653,0.1349536832384765,-0.06420329984128474,23.121988387792168,20.7744950587411,54.911947870099496,forward,forward_4
2296,0.7428525029897689,0.8410885669447481,0.9922545493155718,2.4439797829178436,-22.630366739260282,49.269200747671796,forward,forward_4
2397,-0.04670742717180401,0.1988655989177525,1.5428794300973414,-5.655923837997118,-4.103312129739677,7.160279832881597,forward,forward_4
12,-0.5047943460423499,-1.3750189180351793,-0.17859189556539057,-3.4294467334432763,6.320440626310475,9.994737048337425,forward,forward_5
113,-0.27582082830443977,-0.7893065033897757,-1.9095488424539564,-25.567897912593953,-30.785926796957327,-14.380100986079134,forward,forward_5
229,-0.6457650976132601,0.6977307741068303,-0.9533177926778793,5.948465535903819,-11.292811085003764,-34.409724642242615,forward,forward_5
329,-1.1783411114852875,0.1403529119335115,1.1625503257006407,6.919575001907061,7.924071286346973,-47.43583454046781,forward,forward_5
429,-0.2621606248077005,0.10017565371543169,1.4070897344261406,-5.12268371241823,-5.872646167248446,-34.95843813449934,forward,forward_5
529,-0.29716844449862834,-0.4365682934910059,1.2416302921563387,-13.169872573649268,-7.015253145574246,-26.82403971039829,forward,forward_5
629,-0.13476290990673004,-0.6101730482935905,-0.7407499777525663,17.97980704661449,21.819278360226683,-12.354282246178984,forward,forward_5
729,0.9882706673111766,-0.5937183187074959,-3.1086569207012653,-7.574265709325709,21.969685955939536,25.98317682922531,forward,forward_5
829,0.24914220807952805,0.8148940952412783,-0.13381518072783946,25.509561266892874,4.9997629323596255,55.68498185017236,forward,forward_5
947,0.7358402130749077,0.1082343108780682,0.05947919392883777,10.625042272871836,-6.879850194807444,50.18060411504538,forward,forward_5
1062,0.5999744199601933,-0.14737638082951307,1.3635200572907924,-1.4574289667484943,-17.137115382291242,21.20568148594942,forward,forward_5
1162,0.2810806485287845,-0.701351302691549,0.7858271368414164,-5.117195655420124,3.07848685445228,-0.19592245555750837,forward,forward_5
1262,-0.29067762117460366,-0.4520436566509306,-1.0143588290959595,2.7340069039929213,-10.704074391758052,-14.153289186763228,forward,forward_5
1362,-0.6428365698806942,0.49535365993678565,-4.420108352580666,-32.5963845496851,17.48449197328892,-41.28634543823311,forward,forward_5
1462,-0.4244287236902863,0.18163827752396464,1.8052724754214287,-12.399993287199294,-51.2371319268088,-46.453902639724674,forward,forward_5
1562,-0.7991603734061121,1.0183430764265358,-0.30113047999739645,12.06547794240875,32.29885126415559,-32.18938723742238,forward,forward_5
1662,0.6222735281929374,-0.08892010020762682,1.7324796264111995,-6.95603327103612,2.5148035085255867,-22.157828639269415,forward,forward_5
1762,0.027194588656723497,-0.04912248895689845,0.08764262761771678,-4.838621267479277,-8.023877425593785,-12.50655619108254,forward,forward_5
1862,-0.10897584996037185,-0.606704349269718,-0.4043599683254957,7.850578450877636,27.390342647315094,7.766181218398374,forward,forward_5
1962,0.5133743236653506,-0.18711729345694184,-4.936164608806371,-23.98511939320668,25.012980901023557,32.17730121768604,forward,forward_5
2062,0.51480337008778,0.3968650825254619,2.3331033405929804,33.22343006643812,32.14348836619989,49.981432383753216,forward,forward_5
2162,0.707567400727421,0.38843686139807104,-0.8202677511036396,17.000631127201462,4.127627176298099,58.82063973585518,forward,forward_5
2262,0.7264237846277654,0.6909620106242597,1.7231915735840797,0.0007995723599278404,-11.78939571974131,43.946205516143664,forward,forward_5
2362,0.4632795190775767,0.12921557797789573,1.109217963963747,-10.11674984012324,3.8886008643120946,3.8677722024381405,forward,forward_5
2462,-0.003092778383567929,-0.05794599301218986,-1.3659960920155048,-3.1386307255190617,-31.679049163017364,-10.316149528978947,forward,forward_5
15,0.33833792862445117,-1.1145629782535136,0.8815151237487793,-9.046097197156232,-1.5029769370023705,3.3409114735440437,forward,forward_6
115,0.2642109084010124,-1.0338451814629137,-0.08439911565184592,-0.48510265985593126,-15.136996936690558,-0.2912196560959064,forward,forward_6
215,0.13495083369426428,-1.31069345311895,-0.31815818716585637,5.482893801979539,-14.347223870509277,-25.802117052064737,forward,forward_6
330,-0.5787088925588876,0.42042043789699673,-3.537662085461616,-18.13608689746626,0.31249083952288303,-32.29168981081083,forward,forward_6
430,-0.8400712065957486,0.32808680291883646,3.0191327171206472,1.9246303411200567,-34.768128573655275,-36.0764103280362,forward,forward_6
530,-1.7879609828755259,0.16678163078427313,-0.02888239561319351,-6.693590509254373,3.0603174840429883,-39.96280504124638,forward,forward_6
630,-0.3679402360100299,-0.3370572411641478,0.9189151723384856,-4.531151337367867,2.5154984802736355,-34.2458479134865,forward,forward_6
730,-0.6519521887503564,-0.4891865156091749,0.45264556806683537,10.073757214392597,2.982138285029376,-18.80557008707986,forward,forward_6
830,0.16128865939117967,0.026275427985191342,-2.7715736683130263,9.047994282198204,31.592285269990693,23.342294431923637,forward,forward_6
930,1.7676671135179698,1.188612257065624,-1.7637942176073789,18.343902233153067,2.5039727494926507,36.996942243235495,forward,forward_6
1030,1.016841805018112,0.07274564886763692,1.2685469406545162,27.697788244877586,3.7638538624241584,43.891803059404516,forward,forward_6
1130,0.42244346815720196,0.19597996047884225,0.8583733176141977,-9.400054675419218,-7.328401097320052,41.980511223959844,forward,forward_6
1230,0.49733493341449647,-0.3278239872641861,0.7903197720855474,-1.8236965803299587,13.343098977605484,6.826106424436376,forward,forward_6
1330,0.1709432805083692,-0.1685312509305775,-0.6657049659013747,3.4449437923398007,-15.945418126853268,-9.470594307846172,forward,forward_6
1430,0.14886135869026182,0.21783888719603417,-3.791411221081018,-29.627096411805454,-30.72318467924159,-37.961160048366196,forward,forward_6
1530,-0.4131158139720559,0.15551730944812298,0.499569816327095,9.167597724754296,-20.165689562166598,-36.42873539108755,forward,forward_6
1630,-1.3772111673824488,0.5108877675466239,0.23192659538984298,9.736424416569422,-28.063524384364257,-21.490749676243656,forward,forward_6
1730,-0.023948811668530107,0.3227016758143902,1.227028350830078,6.771178043131133,27.6297049192309,0.6675492855831366,forward,forward_6
1830,0.11152275796420871,-0.10259762016534804,0.27235797449946403,-11.700418845423554,-8.972803290946473,15.062532506811786,forward,forward_6
1946,-0.4818815994232893,-0.09879895853474735,-0.024817630392313002,20.138594201729155,13.86224884981346,17.727224943560127,forward,forward_6
2048,-0.03407923360392451,0.13830620853677392,-1.461755975115299,7.413106542085612,-5.792536586020659,17.001573693306923,forward,forward_6
2148,1.134327709170431,0.3895547595120966,-1.1884054824471473,-2.4829351265187767,-29.782694951287514,15.05212500606398,forward,forward_6
2263,0.9454434791062026,0.932445100519061,0.0020160159975290298,-9.886156677328087,8.694383436035595,37.86305462622272,forward,forward_6
2379,0.1683630547568202,0.6946263783507048,0.081642510420084,-12.415519160956379,7.5253965595879135,-1.9998183441640265,forward,forward_6
2480,0.08429616673402487,0.9345379811450838,0.012512860092520712,5.431140177977883,-16.832832162314467,-19.956492820720154,forward,forward_6
13,1.3436813843548296,-0.47882469607070083,0.2249497421145439,4.266153657949713,3.6581169845436605,49.01321891795806,forward,forward_7
114,0.8034132816102355,-0.3834026666231453,0.9874176306784153,-7.685914542819676,18.401772718443294,48.376208155205994,forward,forward_7
214,0.13010452617425472,-0.8672614113382995,0.31574995698034763,3.844596089923818,-9.317265098715847,25.927749844110657,forward,forward_7
314,-0.4325516051955521,-0.5775256010584533,-0.2567301972568035,16.335367286947637,-19.793900167528,2.7376768500113338,forward,forward_7
430,-0.42332434264495966,-0.09082637222036719,-2.6681799293339252,-40.70029130178392,-18.95593670165769,-24.771868393132937,forward,forward_7
530,-0.22352950005307792,0.35909488544911145,0.4881599490404129,-28.261815021253483,-1.9532746603952094,-40.327547388208814,forward,forward_7
630,-1.306789285287261,-0.05416420945115387,1.1831897936254738,3.0316069973102513,-25.162533015542866,-27.6292490041038,forward,forward_7
730,-0.43529418190196156,0.008719166897982359,0.9850865573823452,-13.797444014968379,21.952625850940134,-32.60300641808543,forward,forward_7
830,-0.30163689514957365,-0.7252119246199726,0.9871668707877397,-10.465678591609805,-3.6715861175869255,-32.339931436918626,forward,forward_7
930,0.3130518404701724,-0.9986281760007143,-0.11433131257891654,9.618020525986312,16.59172819216031,-21.366974695651976,forward,forward_7
1030,1.1040409997172653,-2.0369820670597254,-1.131601645207405,1.611603945397136,53.47807601235496,25.453260017564457,forward,forward_7
1130,0.010929865217395127,0.7892209439981729,-1.8148188869237898,6.066323865126973,30.240642059663944,76.38488782808234,forward,forward_7
1230,1.2526426845580338,0.03824541337266564,1.0594921022862196,30.26022421201437,-16.572052124708794,72.52348819213982,forward,forward_7
1330,-0.06750608598003163,0.7751575665280223,1.5152192697554825,0.15310210534042082,-4.225923416851514,52.59458421302464,forward,forward_7
1430,-0.2479607614763081,-0.2983468406282365,2.1049398971289395,-0.5694549624970598,3.6125877973100016,11.230442920145085,forward,forward_7
1530,0.24165490279775112,-0.5581966312102973,-0.6338841787487268,-2.080655767425243,-8.44275158304951,-13.845515740120575,forward,forward_7
1630,-0.14065945713203398,-1.4905923396296799,-1.4449346041738986,-33.94560987304566,-35.51713053313346,-43.84293305589307,forward,forward_7
1730,-0.7845863430000841,0.13027889636047182,-0.929703692856431,10.248933637356853,-28.094388301676254,-51.582408234636695,forward,forward_7
1830,-1.98399355032444,0.3129879449211061,1.8700848470717668,10.857147468794501,29.91374579089255,-41.78854534224205,forward,forward_7
1930,1.0582073962379246,0.23858400745242833,2.164154887163639,-1.0580465683583982,0.49290417663111386,-28.046346458601676,forward,forward_7
2030,-0.3048782151583582,-0.15399726027399302,0.13343641054332256,-8.822520346185975,-8.752953161942102,-21.142034368168655,forward,forward_7
2130,-0.14406163025833665,-0.7624570749089121,-0.6979623909056186,18.319364778559798,27.38169904292044,-2.8551857723697607,forward,forward_7
2230,0.995435809700191,-0.6322776203349232,-2.777414211034775,-32.3669516652752,11.127686992950474,36.81008875811146,forward,forward_7
2330,0.3855694162029773,0.2630747439779341,1.1639134307473897,55.49119230794618,39.17806753203069,60.63631575310884,forward,forward_7
2430,0.7409444043461233,0.9366827380888163,-0.7761100449472665,16.691515548386903,-4.679577324447768,59.94029215592786,forward,forward_7
14,0.6842979496251791,-0.21446049680411813,0.6440513524979352,-8.07274657533158,20.356478943799853,19.46518706843738,forward,forward_8
114,0.7967889680996537,-0.6779894240655004,-0.5345376693338155,-10.561729834360403,14.878277908666938,27.860015482949144,forward,forward_8
214,0.2080251665269956,-1.2392160706214606,1.4944307487487791,-17.065681848856663,1.7919359872459877,18.073365270318032,forward,forward_8
314,0.06267207168601453,-1.5375886302128434,-0.2266016009747982,-2.74279223481285,-2.553263449968282,2.5739459031053156,forward,forward_8
414,-0.03344550227764994,-1.0116090919964016,-0.1005646530330181,1.9999568689381308,-11.865413163882614,4.244511349790881,forward,forward_8
514,-0.5675379485946148,-0.8150399334527552,-2.3298674274116755,-23.698217297120294,-40.93918741328887,-22.441447121912315,forward,forward_8
614,-0.3647781917825341,0.5060775907859206,-1.6146686550229787,1.430880341609772,-6.464764231020137,-28.333093167884442,forward,forward_8
714,-0.359492944855988,0.07224690556526184,2.3056688057005403,-11.903331812833585,-51.00744291030502,-48.796787298633284,forward,forward_8
814,-0.6222965437423438,0.5547755707204342,-0.9188988057255745,-2.183904748900564,20.852454837927624,-40.69041484824408,forward,forward_8
914,0.2628039642125368,-0.19670228340402243,1.4621972891420125,-8.867067693726444,-6.6991630898434575,-32.01882033837423,forward,forward_8
1014,0.14453019761815666,-0.5096620982091874,0.03202595433592796,-3.118902150988303,13.499862918114678,-16.901316761574893,forward,forward_8
1114,0.579660019271262,-1.0497717955216765,-0.9153951815187931,13.942615416908769,47.89562238482556,23.29803822119654,forward,forward_8
1214,1.132416760982573,0.24447218870818613,-4.241294923219084,-14.408215752250198,-1.6443659082464541,53.75968129674,forward,forward_8
1314,1.141196498961374,-0.2004804867684841,1.8652730628758667,33.08902218885602,-13.894621385158382,61.06406318007006,forward,forward_8
1414,-0.01937412416413426,1.2517334607586263,-0.9734837978720664,19.478634003365844,-17.59695103797318,68.48406650567009,forward,forward_8
1514,0.03545300617516041,0.21076047324240207,2.8063270017862316,1.3208890029282965,-10.16253174435619,26.10456295115478,forward,forward_8
1614,0.016629209370166063,-0.2571419929280877,-0.2592453949481249,-5.526304776796848,8.550724067222719,-2.2122207922087327,forward,forward_8
1714,-0.28133696137741204,-0.06845759628489613,-0.7117267123639583,-3.966319879330377,-1.4680539663326837,-22.704219867208337,forward,forward_8
1814,-0.6671733579535037,-0.3665916709452867,-3.1285990540117026,-40.88413608857857,-18.439985919302224,-49.85223252541326,forward,forward_8
1914,-0.5745761036030947,0.34043738512173294,0.9309709363132714,10.598456615301208,-51.94151567553387,-36.70916588293535,forward,forward_8
2014,-0.9039037734284996,0.5053115748494863,0.33268004899322984,6.477836359317895,9.15034808200543,-43.10359922918504,forward,forward_8
2114,0.6840500392787158,0.3449650916792452,1.0858283205479382,-1.407171154175071,12.584892484447064,-31.19734665670763,forward,forward_8
2214,-0.07574716877117753,-0.041155017209053034,0.4745218843102455,3.2757042978681667,8.972497639981114,-15.64554720908032,forward,forward_8
2314,-0.1653832717610523,-0.25045827738046644,-0.20197686280608176,28.716625365253584,18.872379582446342,-2.5125474116653668,forward,forward_8
2414,0.08463528076158836,-0.4892848614171147,-2.618907072120905,-15.154840805897217,32.807638885619006,23.903129802409847,forward,forward_8
13,0.07446048996150494,0.48314738157540554,-0.20250000989735126,-17.060729961708404,10.630506424207846,3.1394390357186506,wait,wait_4
113,0.22066768088117242,0.29642566330730913,-0.27097148857712744,-18.24468519772217,14.085006931856963,3.731096275164777,wait,wait_4
213,0.41182939089071,-0.05579188371822238,0.2802197939157486,1.9164731742603576,6.119163489206661,16.360661184991486,wait,wait_4
313,0.839614548869431,0.7894966191343963,-1.3652525801718234,-10.303306212018384,15.038469750365833,1.1986064186702658,wait,wait_4
413,-0.10923479315750301,-0.4239351680196821,-0.19623802689313888,-26.12511669791464,-25.242195219380015,1.6850825868796042,wait,wait_4
513,-0.12720109635032711,0.11080649945363402,0.5481558603197336,10.07913171949575,15.087128018013003,-2.5406982497729858,wait,wait_4
613,-0.23546397573575376,0.14599720143079756,-0.0972141735613346,-1.974246969685145,4.128857037235524,-12.21137334440116,wait,wait_4
713,-0.07414240045566112,-0.16730960018113256,-0.0826923117339611,4.83541363989031,2.7522962295995117,-8.430539204813527,wait,wait_4
813,0.231184946709685,-0.2275191542111337,-0.32334289632737634,0.24641332165593183,-2.7919610591004798,-0.5129271429872707,wait,wait_4
913,0.16593772730603812,-0.126743927167356,0.2047983499675989,-0.7838245583835826,1.761200883032871,1.7726595925826252,wait,wait_4
1013,0.11196843763878568,-0.18320275036171077,-0.13286474813520907,-5.351179153364543,-1.646892011022301,3.53924864109699,wait,wait_4
1113,-0.15568930501416325,-0.017298925325274467,0.12164309689700603,-2.5640472514506745,2.418397309381561,-0.4513056565430917,wait,wait_4
1213,-0.0676935348435305,-0.05549158559739589,-0.2507815179854631,3.8319303578816757,3.8753639577006096,1.1644873826102307,wait,wait_4
1313,0.020643623510142785,0.031221798346191643,-0.13780337358117103,0.5571808991151354,3.4952368230761315,2.0980048748038986,wait,wait_4
1413,-0.0066057435241411435,-0.09704305477812886,-0.0909445917725563,-1.7812357488592223,1.940169448368659,-0.03181227306999552,wait,wait_4
1513,-0.010119667645939625,-0.08055076966062187,-0.2190460710287094,3.9092002879620296,1.8248664636687348,0.6779469679340118,wait,wait_4
1613,-0.115700080181472,0.01440700327605009,-0.020756372302770613,-3.5916046024060764,-7.015104588959798,3.47728324395593,wait,wait_4
1713,0.0036298581020673733,0.02503141927346587,-0.030906010395288466,-0.48482150152205,-0.7611270393588369,0.9287630402011043,wait,wait_4
1813,0.14353841010183094,-0.11672492971718311,-0.09197978003919124,1.2052672404932034,1.9014548689359687,0.9292937672439555,wait,wait_4
1913,-0.013586745534883812,-0.07229907414391637,0.18179916717410086,2.8222546556167787,6.342072689185551,4.682190298692121,wait,wait_4
2013,0.10538980816714465,0.1263287704952061,-0.07447334944307804,0.5080167705825605,2.655684271006739,1.4940564965029224,wait,wait_4
2113,0.07934972330778836,0.0021817279532551762,-0.062242228901386254,4.111088300109736,1.799103843893093,-1.016677499937806,wait,wait_4
2213,0.05128304625796154,-0.14451646135374902,-0.06562894873023033,3.784531833249549,-0.5670957724690551,6.781946263244482,wait,wait_4
2313,0.14343828332875855,-0.048052375507354736,-0.115352472320199,4.284881609767064,1.7002307725199288,5.679627582624824,wait,wait_4
2413,0.049153642146987836,-0.1336459616407752,-0.032598785787820814,12.659431192633058,-6.805721724858473,5.128704097284773,wait,wait_4
14,-0.6511217292755842,0.7237067807540297,-0.5683282952547073,-8.745829274637778,-34.745110836152335,-22.00325975080473,backward,backward_1
114,-1.1880378912437706,1.1040893689036368,-0.6537064850717783,11.021666235332598,-4.418290145296223,-17.312238017515785,backward,backward_1
214,-0.19532098511345683,0.9390744555309414,0.37725335021317,14.683356262585821,9.76769302258974,4.062729280125576,backward,backward_1
314,-0.2895921640254557,0.4622516008019447,0.1018500166684389,13.52555296713039,17.851155310955424,18.49049175311988,backward,backward_1
430,0.7513860841877759,0.6581248860359191,-0.7533060924649239,-4.142997236364743,8.552269397522434,44.29420365435582,backward,backward_1
530,0.7588802393354475,0.16458412073999643,0.19306231946647165,-13.145618571906553,30.914105542016372,24.44088425614329,backward,backward_1
630,0.8958733925122767,-0.4114692158088088,-1.0211486353665589,-3.559398766365585,23.165358381474455,-5.518177705458179,backward,backward_1
730,-0.09266652019433677,-0.933909327852726,0.573573210170865,-11.782996686262655,-23.32742681764781,-30.746424397892557,backward,backward_1
830,-0.30784239872619507,0.6105798755288123,-0.5691840353012084,-6.181628984261013,-42.98657076794604,-37.70384633176431,backward,backward_1
930,1.583069109405577,0.559485063585639,0.4462234260648489,15.073211507579101,-27.76996285383711,-55.94396896312091,backward,backward_1
1030,0.9572105623327195,-0.18253508023321627,0.026352000352740285,4.923135040061252,-10.17425747161381,-43.88269158705172,backward,backward_1
1130,0.03079721625857055,-1.0904492583468555,-0.6759896285504102,-22.258059957792057,-9.576105362597236,-26.192949014109328,backward,backward_1
1230,-1.0481197905309498,-0.3291799319177866,-0.4980319392353296,-16.694717199560348,13.775674494536256,18.361363611766205,backward,backward_1
1330,-0.033548633858561515,-1.1752812124580143,1.4549685069322584,-9.461041434518263,-37.29814675544389,47.12211370660537,backward,backward_1
1430,0.523662055054307,0.1093792431294918,-0.8045727538436651,37.24137422306274,50.756515420577095,9.291055955323216,backward,backward_1
1530,-0.5661368496250361,0.44707653576284645,-0.012920271849632263,6.224524706682809,2.2836018185640667,38.052506998325946,backward,backward_1
1630,0.2066279034823179,0.5747852163091302,0.7665741548389196,7.31937500233188,14.18255910867767,51.30082685591375,backward,backward_1
1730,-0.5140713294861838,0.6200915079787374,-0.6667647040873765,13.361729172340342,73.9559837667666,51.79612143867181,backward,backward_1
1830,0.23292948882207273,0.32221915299445386,-0.6229284849703312,7.8698353154688405,20.864617697292125,29.67408811329514,backward,backward_1
1930,-0.5178898283284157,-1.83031690030694,1.6085726762354373,-31.65699789728198,-4.783321494637915,-46.265389418632324,backward,backward_1
2030,-1.2637161594972013,-0.07750847935527562,-1.4312556229114533,21.62460430850298,5.662007402113484,-37.92440680044236,backward,backward_1
2130,0.5876348706079647,0.035172143407166005,0.4694137475162744,-24.84526219085931,-95.63713521140811,-46.26249341842424,backward,backward_1
2230,1.5280504020169376,0.25860534347891806,0.4068944552391767,21.356608176039188,-15.457838242762737,-63.9590525201583,backward,backward_1
2330,0.8575235689170658,0.08449585402458906,-0.6596569179087877,-10.356952225306957,0.028902642499049842,-36.66739927616072,backward,backward_1
2430,0.30370339922532436,-0.5200432800352573,-1.5067910486280918,-9.373364857463747,-2.29966002018959,-24.181261935601935,backward,backward_1
14,-0.2707640381052159,0.1143073471814394,0.006501052457094192,3.994970815351288,-9.94900893184419,-21.78814294289518,backward,backward_2
114,0.0016942914961837231,0.9860346518874168,-0.24634090518951415,1.8587087703456786,-39.236322215461726,-42.845319040815596,backward,backward_2
214,0.3620372225113213,0.9005524171739816,0.4323579823195934,7.917108762261791,-33.97824793199457,-51.04346532798767,backward,backward_2
314,0.45247744495831427,0.7939999219030142,-1.1080594415783882,5.694748767673587,-26.211598845638047,-32.954969481110766,backward,backward_2
414,0.22890797822102904,-1.1249462789714335,-0.33456045591235156,-27.79911751630931,-18.215470771094733,-44.265755916462716,backward,backward_2
514,-0.9346786317247897,-0.051532618838548656,-0.06910393136441707,-4.413567923258805,-11.702928939943535,9.804166232757607,backward,backward_2
614,1.2054944182835519,-0.22422157397046683,0.6279442673057317,9.472230138152389,-6.461916895909888,13.414132944973618,backward,backward_2
714,-0.2604093972261995,0.2288043717160821,-0.2845288892865181,22.611185860523594,57.26681609590688,3.6712288133159694,backward,backward_2
814,-0.9720509885899722,0.583607112929225,0.6227344237029552,5.410197110435331,8.552241222992107,44.76385087678048,backward,backward_2
914,0.2177225856062956,0.5562050190016627,0.11140285791158676,5.054012136729275,62.3721127080192,48.741233955018984,backward,backward_2
1014,-0.5085565115874633,-1.480303731457889,-0.0072761284828186034,-41.19691777143014,45.85511703066258,31.295544286404905,backward,backward_2
1114,1.184991582350433,0.1939928783148527,-1.009268227958679,-1.8594908270056452,-21.107471903421096,-20.808345476267682,backward,backward_2
1214,-0.5655934634633362,-1.2441270774081348,1.6949498139619825,7.818644755186887,18.677959955269223,-56.539544383273096,backward,backward_2
1314,-0.05379121142029762,0.9511538926422596,-1.4953531242907045,1.0120433233076582,-69.11756655118877,-33.46578225366309,backward,backward_2
1414,1.3551403514802456,0.8429553837299346,1.460403975984454,2.8448798706858573,-8.847294296079257,-67.95034869373612,backward,backward_2
1514,0.8780856607567519,-0.16287497873455284,-0.60814125020504,17.795636118286975,-6.556630702243631,-38.65899706077182,backward,backward_2
1614,0.553432923939824,-1.1420374067649244,-0.51649464764297,-30.51888689097734,-30.62614818170322,-15.056832713949412,backward,backward_2
1714,-0.9020370297085494,-0.34721681612879035,-0.8490671446084975,-21.08453271309361,8.95885945975589,36.66744367239033,backward,backward_2
1815,0.5859227694604545,-0.8632210499063133,1.3019500285625456,0.5697836653508667,-24.96972019036799,72.74251869844379,backward,backward_2
1930,-0.0952591670360416,0.3572609480202198,-1.0007225179314614,20.354602349325393,58.50876646816323,34.67722217089699,backward,backward_2
2031,-1.46333038482517,0.4716346384361386,1.138155304634571,9.934952402532305,35.88251491787788,58.38137660995332,backward,backward_2
2131,0.03938522192439996,0.4665092582464218,-0.5759317559957504,4.772427342911745,51.675630071523614,80.09230084918693,backward,backward_2
2231,-0.06870400879401713,0.27294775708615776,-0.6274649593561887,-0.11537155339588859,19.397604054147397,55.14318392445028,backward,backward_2
2331,0.816548146058619,-0.7379337512880564,0.25567864237725735,-2.2137449916107035,-6.857979929085063,-24.459172087646,backward,backward_2
2431,-0.7446904590066522,-0.6970813702873885,-0.19521862071752547,0.8390096053912295,12.552755590628507,-34.50942491355729,backward,backward_2
12,0.06304565423876046,0.3793789640650153,-0.33554186816513537,-15.53821761646274,-18.219394714772907,8.031634812943626,backward,backward_3
112,-0.8139326297979801,1.015078083281219,-0.45258770039975643,-6.4477579137604515,8.22666659582511,32.26786952608041,backward,backward_3
212,0.22827143388316035,0.7404783212043344,0.5423001200288534,1.0035442201026352,26.335343090378462,49.9532168722919,backward,backward_3
312,-0.5587009640032425,-0.16053645278438924,-1.1964473346054554,-4.956586318408213,51.20581550946429,61.39674803416304,backward,backward_3
428,1.0329898067425936,-0.37753552815541624,-0.4623351874321699,-23.508701745767244,-36.77606075566646,46.575240950329956,backward,backward_3
528,0.7207420857295394,-0.09743979901075363,-0.3765443251609802,14.61842165414651,52.771673942730146,-29.721370097824554,backward,backward_3
628,-0.05030181666826829,0.13036270218640564,0.904046689030528,-13.404177944258324,-31.58557119403657,-29.864513787355097,backward,backward_3
728,0.6273923325113951,0.40725364394038915,0.638947307357192,7.287626575522369,-55.65280824408702,-41.69065848615202,backward,backward_3
828,0.6402091439865529,0.3338186976343393,-0.030976737543940543,-2.8743152112442623,-8.871787354442922,-60.461982004733436,backward,backward_3
928,0.7397024414610117,-0.2847533456921577,-1.0207394700437784,-17.439325639854918,16.285160273906165,-50.738965249504744,backward,backward_3
1028,-1.5052978874608873,-0.4331185914285481,-0.7454162159979343,-35.59448584057844,-44.524278576547694,-33.1069309448598,backward,backward_3
1128,-0.5077072378143668,-0.8975307312652469,2.058995892077684,1.405172896956019,-12.89840926640805,18.035215248708926,backward,backward_3
1228,0.8265302455645054,0.9048055445738136,-1.4024194045275449,19.195693416998065,30.402794165654633,36.20540869579565,backward,backward_3
1328,-0.03744140351340174,0.8561874980077147,0.5419014761000871,17.146435175413725,-10.604047125136862,65.18565887244421,backward,backward_3
1428,0.031146614218130707,0.5857235205613076,0.48518181001245975,8.564991478625227,54.28139846630226,63.31769092690494,backward,backward_3
1528,-0.8981819617155938,-0.8876340450204908,-0.23780454751253127,-26.58727974055626,24.156043169638956,43.82387682810874,backward,backward_3
1628,1.0464461582303046,-0.7693322213754057,-0.8062029853940009,-7.654428224519563,13.440137182691148,-19.4530651902079,backward,backward_3
1728,-0.18864136121906339,-1.04956019859761,0.9733902743697166,30.14962637387894,26.22220783696637,-33.600326735028595,backward,backward_3
1828,0.6125509198734537,1.1369894757255912,-1.4545710320472716,19.872466126003363,-81.40601943414717,-40.87133289897938,backward,backward_3
1928,1.5985788132265208,0.7480128083623945,2.5633921056479214,-4.4620729385364735,-17.69245757313747,-77.03785391273556,backward,backward_3
2028,0.35002727043963966,0.05493818949833512,-0.9539385549247265,7.643902049234928,19.695026349102896,-58.92604321512682,backward,backward_3
2128,-0.43387719124350693,-1.421733907458931,-2.5310353119224307,-27.066289444785717,13.53764496328225,-32.12918936517247,backward,backward_3
2228,-0.5841811864901334,-0.20612010009065268,0.07243102996051311,-33.329325319329996,-57.47243552577553,13.482436544221038,backward,backward_3
2328,-0.4599104445032775,-1.1500886112734674,2.8867636435478925,10.467317837010608,-19.79746723382204,23.967857797626763,backward,backward_3
2428,0.10021408602967857,0.5189290351830422,-1.486117093911767,24.508542402514145,81.0863870715581,30.936856902141685,backward,backward_3
2,0.46473209250606595,0.9132447254866362,-0.5230675962924957,2.2644134693079736,16.93701303772467,20.239383888216448,backward,backward_4
115,0.7027418802671134,1.176378652305901,-0.5062918180584908,10.263917364848567,-11.764604694375103,-6.737604248265936,backward,backward_4
215,0.2391833615850657,1.0501219241335988,0.15310323404371737,6.432735339567832,-15.537141861668463,-34.68867298304052,backward,backward_4
319,0.5610740498101339,0.9546639465898275,0.8228741342097521,15.145780559963194,-2.927883958017849,-39.81024252085039,backward,backward_4
432,0.980082027093321,0.6405421753332019,-1.6258721860826015,4.786701157616601,-36.5520612867413,-33.17638372343507,backward,backward_4
534,-1.0201152737308292,-0.8325858192764222,-2.084193461698294,14.55616106476726,3.83661800208642,-21.657262858019397,backward,backward_4
649,0.45124205794446165,0.7549379314504563,2.7513936345934864,-30.67032584525486,-61.44940879266384,35.323122424853835,backward,backward_4
749,-1.4963077946670353,0.13083368069902063,0.28802374566495414,16.34769065575763,49.573594958222586,37.519615639281554,backward,backward_4
850,0.06108304892890155,0.8884579286240041,-0.6402542983025312,2.275307621034144,13.32499897630495,31.962078541844352,backward,backward_4
950,-0.3921276787400245,0.9318282837949693,1.9107476968497037,7.62511049128093,36.021133607083286,35.30552102736271,backward,backward_4
1050,-1.0060703087002039,0.5326778668113052,-0.42303252009153364,14.376281202785803,96.99427330892213,51.58297855543239,backward,backward_4
1150,1.319745212972164,0.8048005712501705,-1.543909942188859,-31.400507218475074,17.73664718952016,35.4029639211567,backward,backward_4
1250,1.6690024488873778,-1.6265397100806236,1.120210482621193,-35.36500514484435,-15.826547222085658,-40.353167427785536,backward,backward_4
1350,-0.31586700748875735,-1.0652724392533302,0.3581821545183658,51.7167922065567,33.46696387638951,-38.95584391228974,backward,backward_4
1450,0.9645245386078953,0.6112981068007648,-0.9642460139274597,2.794428464938147,-89.87384891050803,-42.02386243462192,backward,backward_4
1550,0.6377681805752218,-0.18493074319809674,1.3375368902504443,28.17240955256531,-3.6396605327458165,-61.303659385964934,backward,backward_4
1650,0.3402398897882551,-1.0098390135839581,-2.7641350427448748,-4.284765923437997,-8.988035466569247,-36.327433440412506,backward,backward_4
1750,-0.16601075600963086,-0.4157487928241491,-0.8029273247241974,-5.906729238093632,-35.80244461023782,12.571688875007782,backward,backward_4
1850,-0.4731378095407039,-1.190270984058082,2.6459645903944966,-11.141291022229847,-37.36820059066613,36.336022403293796,backward,backward_4
1950,0.3370407284207642,0.041569443228840826,-0.8113327494978905,21.296570813234776,19.687605348569676,20.360460944085972,backward,backward_4
2050,-0.2128380832340568,1.2877633900389074,0.4781289688915014,6.119856753407418,18.31969604273454,29.938033943581114,backward,backward_4
2150,-0.009632043959200382,0.4089008266255259,1.2940291724354027,-9.319670179077338,23.815609465932596,40.28844455521049,backward,backward_4
2250,-0.5106269246533512,1.0300772072315216,-1.1062550225049257,9.707250971077004,90.41488185504308,35.88753852201242,backward,backward_4
2350,-0.5094575155477971,-1.3448989434510468,-0.2953378680706024,-51.837597762406716,54.2589066533654,10.484722012789447,backward,backward_4
2450,1.2026977002371102,-0.3247143308110535,-0.8312620233267545,-39.58438524047099,-27.879956220230994,-32.95620916044513,backward,backward_4
1,-0.2532869066688232,0.6045467328444123,-0.40534664127528663,-4.4519911524347116,20.03920641156901,16.841697747857143,backward,backward_5
114,-0.012303975715348496,0.46628830897212026,0.7793810294419526,-22.313930905202763,33.23617178433478,24.86019469193225,backward,backward_5
215,1.050368446240574,-0.28181407736986874,-0.49008594866693017,-9.091511978721293,29.905556394077703,31.408153615250903,backward,backward_5
315,0.2354042449051514,0.34028438651710746,-1.2447884639263151,-16.33313381508904,2.252539398879318,19.68986784873224,backward,backward_5
415,-0.06923544878959656,-0.13590192387402056,0.7373328627854585,5.219635259478799,0.0035244776633257496,0.22563036335247882,backward,backward_5
531,0.20432349899746477,0.612965893882513,-0.3911304843962192,2.6840927353121145,-25.955574327241997,-30.27314351482945,backward,backward_5
631,0.4451427912212908,0.7981403827086091,0.5031459212481976,7.691798750789642,-26.295610172429207,-53.5054445803592,backward,backward_5
731,0.49555283577069636,0.7871180534347891,0.011107669469714164,26.660811849613324,1.3578183416666745,-26.612153581966155,backward,backward_5
848,0.8738717693887651,-0.2509656423807144,-0.026987375646829605,-47.69217837020756,-56.44052030068625,-28.983159837234993,backward,backward_5
948,-1.6142374239988624,-0.49171325760781764,-1.8452730618983506,12.880662727397064,6.455495664316429,46.241145662173366,backward,backward_5
1048,-0.29243330573551357,0.2650235399581492,0.5803033952087163,-47.809070227663156,-55.205867985558065,19.54850513102778,backward,backward_5
1148,-0.6805454652238637,-0.8294587732970714,-0.35294483838677404,46.408297466636505,54.43198023183894,35.514739966923955,backward,backward_5
1248,0.7136611875578761,0.7037099946469069,1.0603589482486246,-1.3817076753407347,-4.573251342751356,64.01555184497265,backward,backward_5
1348,-1.7905331714510917,0.0705231505125761,0.20271160682141778,3.313677588332499,98.36564552066646,77.12060848471943,backward,backward_5
1448,1.0810352410525084,0.012294687297195196,-1.26799865912199,-68.38922932904447,18.805083436101498,39.19333641992025,backward,backward_5
1548,-0.3331158831272274,-1.0584347021877765,1.5874895561963318,-4.008941540411726,11.666786140176765,-37.04816524691601,backward,backward_5
1648,0.03337258317191154,-0.6379165030047297,-1.3504144920021295,14.335733784778023,11.918959285654575,-25.38370307860434,backward,backward_5
1749,0.3102001773661002,0.15553674480095506,1.374942199537158,4.688904374646244,-16.148819452788956,-13.034348813911521,backward,backward_5
1864,0.9166768918924033,1.4764835886478422,0.40431262205243107,7.6390560300188035,-19.87639348477612,-51.74065005732755,backward,backward_5
1965,0.5303922035595402,0.07945771372690796,-1.728604830804467,-32.50015742956337,-38.39970258931062,-54.470027800610495,backward,backward_5
2065,-1.1964245382517575,-0.3932479149416089,-4.279399905207753,-29.06708237156694,6.821257843899313,-28.35977700942439,backward,backward_5
2181,-0.13770875410027802,-0.6823549257986247,2.451884618318081,16.0309611235658,-13.92672839689932,3.677204375066084,backward,backward_5
2281,-0.8627175573635846,0.6124282798744738,0.13524433674812317,-6.325211513445729,6.195489145634261,-19.317702793689296,backward,backward_5
2381,-0.3551272239271551,0.18950594215914607,0.23458207833468914,17.685668365102476,12.093123986848022,7.583127879773801,backward,backward_5
2481,-0.19795557140074668,0.5674639335103333,0.5522744015544653,5.513933596662662,23.129802124202662,16.595134749008853,backward,backward_5
1,0.42200577085968105,0.11635521962195634,-0.4476818081796169,-4.510949772237085,20.54142680614546,17.996436849696178,backward,backward_6
114,0.6319743996046483,0.0947656113654375,0.31167759297490116,-11.187199284962443,12.949856812557524,31.783677415818204,backward,backward_6
215,0.10762564092781395,0.3991881186455488,0.03294131561517715,-7.887399146919528,22.312315565464054,28.06259889373172,backward,backward_6
315,0.3267827345829457,0.5191258729293942,-0.11579787800014019,-7.745840915050075,18.90667737736356,22.8063380254892,backward,backward_6
415,0.10627643654225394,0.8096339827559887,-0.7572375866949558,-3.4794919563787827,8.1898493148778,12.062467536532067,backward,backward_6
515,-0.3200056051308289,0.5343579288527369,0.18367314435243606,-12.337409117608113,-7.883563995700566,-21.09583496862269,backward,backward_6
615,-0.5336692159362137,0.6710046797446906,-0.3666898706227541,6.587594511072238,-6.783903539328513,-49.16370506084637,backward,backward_6
715,-0.7487614347726106,0.7620905796840787,0.6133049165785313,7.561811713147836,-27.015249148665504,-59.07483205600637,backward,backward_6
815,-1.195793254610896,-0.34464462755322456,-0.09215805921554565,-40.066555614738874,-31.88652981943484,-70.3660773201429,backward,backward_6
915,0.7848857643380761,-1.2249985985681413,-0.670316843611002,-9.940921987866895,12.340130947992364,-16.86712483458981,backward,backward_6
1015,0.24389795075049622,-0.008486234924942255,1.065468838608265,15.720896148456609,10.577148986411705,-22.972663377062766,backward,backward_6
1115,0.2538949738308787,0.3239395470462739,0.13177695289850233,20.192754186752772,41.83877455339832,11.996197626110018,backward,backward_6
1215,0.9458006219808012,0.37992549203187226,0.5844710362821817,-22.3887897785061,13.647629791939673,40.620408824346036,backward,backward_6
1315,0.26772037782669067,0.25321488261222835,0.8609341080129146,-10.355260899713732,20.94215400475011,44.092135922855576,backward,backward_6
1415,-0.0639545857772231,0.3654444006063044,-3.400584688067436,-48.856711963316386,23.34022146951054,21.46404022149432,backward,backward_6
1515,0.9725495126966387,-0.5795133408095687,0.3857587282299995,30.50028487077281,19.676881951572756,-0.3655873160679605,backward,backward_6
1615,0.491444450603798,0.31905995831117034,0.45340953817665575,28.86987431966116,-22.912533806704555,6.784111860098199,backward,backward_6
1715,0.34971469735912974,1.7372041707150636,0.7588420992821454,37.18910278534464,-7.5366074613368434,-13.860789750652016,backward,backward_6
1815,0.7576764895688742,0.7119087909325957,0.5613730692893266,7.982725535844458,-15.628499056911968,-9.307389498949656,backward,backward_6
1915,-0.10228380497582257,0.24348610028028486,0.5470598817765713,-2.3495282985369106,-13.255469358101514,2.5572138606294885,backward,backward_6
2015,-1.4402908700212835,-0.548539306679368,-3.2624633345782756,-54.64514702074045,-2.5973909543182074,13.568214328686288,backward,backward_6
2115,-0.3888188829855993,-1.0005163278348743,1.8494155685305593,18.77240098092299,2.3147705330677737,26.93918816206824,backward,backward_6
2215,-0.17049184694644062,-0.20977613838016987,-0.37754561115801333,10.080521662991847,-17.728761736123378,16.632181695067004,backward,backward_6
2331,-0.4257441171377897,0.03868672739937901,0.38598844533264637,16.26775524435368,18.31158348554786,23.304436400901547,backward,backward_6
2431,-0.3791571014752611,-0.12920125719159842,0.31638650131821633,-3.487898638586599,5.5274475528223554,30.94045641183428,backward,backward_6
1,-0.526689001660049,0.2671266497172415,0.5224222841262817,18.003676850216394,19.75636827803878,-5.907841278267876,backward,backward_7
115,-0.4308288365235552,0.32367578154355287,-0.260873288410902,0.5075929253280494,0.8039398390152404,6.125985567527035,backward,backward_7
215,-0.46217553989104926,0.42610929718837137,0.48909401502013206,14.072221671504346,24.956286915817866,17.804940543483823,backward,backward_7
315,-0.25148256066059693,0.31445129547193645,0.1564712491720915,-3.682226698540159,47.10460110157345,32.975927916578954,backward,backward_7
415,0.5902861523017287,-0.3240137813262641,-0.9215911135494709,-20.014223287132392,31.159859163448015,33.83240973283645,backward,backward_7
515,1.149500655317679,0.23048107275664806,-1.124744034397602,-7.481270976228693,5.928967907144371,13.413144275091257,backward,backward_7
615,1.4211023315571247,-0.10335852153524756,0.9786065477132797,5.7719807048266825,10.819453362312494,3.025166555809752,backward,backward_7
715,0.9008073417831212,0.12360299879312514,0.04007482075691223,-7.893159557710788,-35.57203500877661,15.26009231345982,backward,backward_7
815,0.3655925403727218,1.0825963528893887,0.6977870343387127,17.826672497875514,-9.763608569466072,-29.018290915230953,backward,backward_7
915,1.070035269740969,0.21675240713357924,0.257488322147727,11.990157177562788,7.920196861540283,-23.732989790184828,backward,backward_7
1015,0.9489299329824745,0.15508388646692037,-0.9250713568806648,-0.2108918022993698,1.268806569351128,21.72533081574045,backward,backward_7
1115,-1.420159059357643,0.11516104140132664,-1.9613012415230273,-18.412730049419288,35.80112979882259,18.706313778061237,backward,backward_7
1215,-1.6091580749079584,-1.0992639945738016,0.26676526905894277,-19.01513907383607,-24.521511224200705,28.07106491320795,backward,backward_7
1315,-1.8034237788148224,1.300694183282554,-0.5752198083341121,12.22099451962077,-49.9176828131349,21.03994182309718,backward,backward_7
1415,-0.5579321350552141,0.7701008676603436,1.185205809623003,18.14073996383833,9.350833770939168,-3.1222875769391023,backward,backward_7
1515,0.10256784608159214,0.40499081357493993,0.245035667809844,2.2580882872497186,13.499874870945726,3.1217748858645282,backward,backward_7
1615,-0.7843825640562921,0.6897136179983615,-2.0821417898654935,2.9273050994856904,42.43279269041975,-3.566484233855827,backward,backward_7
1715,-0.5639409104833379,-1.121275189243257,-2.0565315477907657,-32.75529231582003,-19.867138578450753,-72.39736191892636,backward,backward_7
1815,0.15807356980219484,-0.17540800483226776,1.6804752984076738,38.20260723552615,-23.106751943301163,-84.55576116989856,backward,backward_7
1915,1.1640998932301998,-0.4382420719221234,1.3697475535035133,12.820969435372092,-60.640605111907604,-52.70345401330006,backward,backward_7
2015,1.8524670650556683,1.4661206000655889,-0.8526122698694467,7.528850073987002,-42.351243646824386,-54.14951775871307,backward,backward_7
2115,1.4010507465228437,0.5035980489298701,-0.02065115836262703,-7.001874512537484,-23.950649136012917,-35.02717032811718,backward,backward_7
2215,-0.6300607480030507,-0.6436933328405022,-2.463008654400706,-53.443464028735924,-37.73935990035379,2.953295890268293,backward,backward_7
2315,-0.746549019420147,-0.7725719339489936,0.4895271457403898,5.57955335845309,-2.1334838655607067,10.599450407825444,backward,backward_7
2415,-0.6535584549032152,-0.27962884228527546,0.5557219116598368,8.70317218195011,5.417263794905356,5.8332923247981245,backward,backward_7
17,1.1057250072814524,0.26100977427214384,-0.5370610503315926,-2.2355610427065473,-20.464080036436943,-4.500106420042867,backward,backward_8
132,0.7025191774271429,-1.0655518407166003,0.618812866345048,-13.061040339414284,-10.684137069570786,3.133583002279011,backward,backward_8
233,-1.1337097234025597,-0.07739508210867643,-0.6745107881695032,1.8066923975043887,5.457713882717464,27.40413279924935,backward,backward_8
