time_ms,acc_x,acc_y,acc_z,gyro_x,gyro_y,gyro_z,label,segment_id,label_encoded
4,4.147669908900059e-05,-0.0193816742385427,-0.07156087170739966,-1.5479247399568337,2.116664631451256,1.4810055702507128,wait_1,wait_1,5
114,0.018698088066093597,-0.012325082435458901,-0.05190262119472027,-1.2247924834940218,1.8398236974969902,1.3325752164743505,wait_1,wait_1,5
215,0.02238494527224448,-0.013795944092571722,-0.04967781397819518,-0.9968906073309232,1.956916752048413,1.220784299037391,wait_1,wait_1,5
315,0.044149376719444945,-0.02503501408308742,-0.05739525648772714,-0.8509357186597093,1.4901723066601535,1.2478715486251923,wait_1,wait_1,5
415,0.044458632638230855,-0.04587707729488606,-0.03036778263926504,-0.7088490649362501,1.259006955439452,1.358090738148511,wait_1,wait_1,5
531,0.05210502285880962,-0.02928308536857364,-0.023451135118603684,-0.5608143409740852,1.227913351672274,1.2350846661026467,wait_1,wait_1,5
631,0.04276637966213742,-0.03789584005653854,-0.03142553345084186,-0.7199498085404722,1.1413569149694704,1.2472788803043053,wait_1,wait_1,5
731,0.0400845311268046,-0.03636217152237888,-0.03446995726108548,-0.9146978023980262,0.9345106550598405,1.4005380373069545,wait_1,wait_1,5
831,0.03253403902875254,-0.02843517791539426,-0.04632897116780276,-0.8527547527821572,0.7604263780098486,1.3092851732030208,wait_1,wait_1,5
931,0.03347684361072252,-0.014329671030044538,-0.0379282225692272,-0.8669406928344738,0.8202769031239491,1.11021969404114,wait_1,wait_1,5
1031,0.01699231436803934,-0.016663783839941,-0.03695324005722998,-0.8732152461155062,0.5075407797685833,0.909270438033999,wait_1,wait_1,5
1131,0.01365935228673738,-0.014804770421981778,-0.0369367565399408,-0.8852299757523816,0.004297532347409571,0.4671939145243284,wait_1,wait_1,5
1232,0.0049882403946109,-0.01961784056603906,-0.048442017799019785,-0.8302616591848357,-0.14885645041419157,-0.06961464338643335,wait_1,wait_1,5
1348,0.003134743401985601,-0.00949322001039982,-0.02450257309377192,-0.698621006064544,0.1080859080021124,-0.5455744973967501,wait_1,wait_1,5
1448,0.00034935777368022005,-0.00512234067589044,-0.03923275852262971,-0.7084904373161421,-0.0037125706677015313,-0.9640488753426186,wait_1,wait_1,5
1548,0.0020504991357586993,-0.016680325809419142,-0.027907646909952143,-0.7737065135822814,0.09952724341309269,-1.3791150849421858,wait_1,wait_1,5
1648,0.0015901187356561195,-0.01972293760180472,-0.028866029000282283,-0.7561375808340574,0.41420886611225727,-1.2836124131036468,wait_1,wait_1,5
1748,0.008350940027050618,-0.009164192638695242,-0.011599603092074381,-0.6186636526778838,0.13738446868630216,-1.2412821236234222,wait_1,wait_1,5
1848,0.018638170919138896,-0.015083061293661581,-0.050283846273422216,-0.806427948863829,-0.4695424910786931,-1.010164509021717,wait_1,wait_1,5
1948,0.016897333214227078,-0.027468787875175437,-0.06139455525696277,-0.6077387410880646,-0.6511798887996403,-0.9130873078247607,wait_1,wait_1,5
2048,0.025334537712410038,-0.009369768987297999,-0.07542740607142447,-0.20993744611346185,-0.6594560476932432,-0.6245575669869906,wait_1,wait_1,5
2148,0.025401834448222017,0.0035792028871178606,-0.07745312513232229,0.301660755504736,-0.6793552222067787,-0.40258138152089495,wait_1,wait_1,5
2248,0.044472555218990836,0.006260521699488162,-0.08681529533505436,0.5680685274770398,-0.5813211328514449,-0.3009912608958998,wait_1,wait_1,5
2348,0.024825501344883778,0.002528583242595201,-0.06426560987472531,0.7683021717582338,0.05833999943068306,-0.020444741209575644,wait_1,wait_1,5
2448,0.028050449717522095,0.012684855658560975,-0.052007981265336234,0.9089581196300722,0.17737508020139203,0.15079248754475164,wait_1,wait_1,5
5,0.3344569711827983,-0.06535373634050287,0.03588496785163877,-0.8389970077832096,4.975340701634697,20.39782037129865,left_1,left_1,2
105,0.3626097434359602,-0.06562003477141258,0.05039776958972213,-1.8305741906229247,7.7204499802952435,24.693056547847455,left_1,left_1,2
205,0.46933415024794634,-0.06936123790025708,-0.0012279635858535975,-4.6114181276723984,9.516454311023413,31.198054264305643,left_1,left_1,2
305,0.6568862987647206,-0.047015609031617625,0.084343001550436,-4.975174195318685,11.40339551889295,43.830524309718456,left_1,left_1,2
405,0.8507041419997066,-0.06728893244475123,0.002546060447096843,-5.63709079464804,12.597466691954327,56.997161593512615,left_1,left_1,2
505,0.8998531828634441,-0.015799012930244206,0.010548749638795884,-1.4416843988719215,10.883651292161137,64.75438979994695,left_1,left_1,2
605,0.7303201637052745,0.09812491711765528,-0.36289468689739696,0.7966592629024889,13.677814404250029,70.43505813264655,left_1,left_1,2
705,0.4753434517457709,0.2831532754713296,-0.36312557304382315,7.914915076255111,16.448967633553522,72.86955748493037,left_1,left_1,2
805,0.03218128372158859,0.4228921763858199,-0.5062009833568334,8.751554936841634,20.656864302883353,76.892825774013,left_1,left_1,2
905,-0.28882726598713543,0.6518810232102871,-0.4045627974212169,9.248862568447167,21.84590512699838,75.74035566101625,left_1,left_1,2
1005,-0.6534000713906809,0.7473359320141375,-0.364412924053669,4.926668360951923,26.339088083100382,79.78426614780851,left_1,left_1,2
1105,-0.5801170423237607,0.7879331692099572,-0.027781740894913688,5.63936402301008,27.467589013242815,83.43274010052723,left_1,left_1,2
1205,-0.4396553800926729,0.784029965839386,-0.23237457296609879,-1.1783964225247279,25.249229631206212,89.33316567165848,left_1,left_1,2
1305,-0.18508475740950553,0.7234089668512345,-0.11622259160518648,-0.5283501583643246,20.76190189745889,85.79883510827337,left_1,left_1,2
1405,0.05980372778851541,0.5150692910149693,-0.28618063124239446,0.9676098051385743,19.76967092522103,82.72405196658721,left_1,left_1,2
1505,0.44119065606202934,0.36372178537130356,-0.24870517932891847,3.7675921957116345,16.48250885695412,75.53131089127885,left_1,left_1,2
1605,0.572148766858317,0.20894871841922402,-0.1972825675100088,3.2072494526193127,12.385187656890187,67.51470420205655,left_1,left_1,2
1705,0.6290532879935578,0.05481473847523334,0.10442495249688621,7.338014588576844,11.118420987567706,56.81792786742665,left_1,left_1,2
1805,0.5416331951657682,0.09304492505267263,-0.21440976030409337,6.416238618453252,14.757768100007985,50.912131035532084,left_1,left_1,2
1906,0.25863668846525256,0.09175944451287389,0.030951953815817813,6.769763404232317,16.944137437293183,48.38366262366615,left_1,left_1,2
2022,-0.05332197186030445,0.16695017767116424,-0.21090917561113837,2.600999962242618,19.021055895959325,54.64907711158888,left_1,left_1,2
2122,-0.2497528909770399,0.22186229749321934,-0.15848106923758987,0.6663138751170097,19.796374232800108,60.32123776065832,left_1,left_1,2
2222,-0.5824197663081809,0.2590325705280899,-0.27014661128640177,-1.1989257940469886,20.11860667765149,65.3678220666652,left_1,left_1,2
2322,-0.7054100400304422,0.17470694389082486,-0.031311960847675846,-1.2205297784412745,18.434215263227205,69.01001412364953,left_1,left_1,2
2422,-0.7332248429447413,0.2453207196513811,-0.22655639794866247,-4.234043871444427,17.774838192264284,74.2978597787527,left_1,left_1,2
5,0.767152661024158,-0.30665352991273004,-0.0018665732343991586,4.724720321402105,1.3598902368627155,27.209943121774288,left_2,left_2,2
106,0.6711401426926255,-0.13704999793060121,-0.209176272790879,2.8418994536084985,1.5796073906216823,26.099416403615173,left_2,left_2,2
223,0.40423061363130797,-0.10702981584608554,-0.11937129412055017,3.688607461262785,3.0420412638618677,26.26718394963199,left_2,left_2,2
323,0.07495563845425843,0.09238353853449226,-0.2532873633265495,3.1793129010247325,2.4590698479171995,27.31496092303079,left_2,left_2,2
423,-0.2671081642124802,0.13041390630394217,-0.18076175772428513,2.5826447359827083,6.922326116727378,29.217012195547348,left_2,left_2,2
523,-0.4637895217328518,0.3014765169560909,-0.21041291652679445,0.8765072158685522,7.570520033584873,34.67402837444109,left_2,left_2,2
623,-0.6285533829539268,0.24709032070428125,-0.042153731309771555,4.464395170837766,11.009759251929879,40.77712375824793,left_2,left_2,2
723,-0.5288735353183747,0.31435014395892613,-0.21983388963162898,3.5976755413446475,13.668300932575892,48.0998716787467,left_2,left_2,2
823,-0.313257614094913,0.23380858051806683,-0.0894574511808157,2.2575037297784712,15.774454052304886,52.56276372771939,left_2,left_2,2
923,-0.07572444548271594,0.20783944200307128,-0.07819184389650821,3.8434137628341474,17.779668331290587,56.56935952503803,left_2,left_2,2
1023,0.20182221292711794,0.12904992447435853,-0.13100468257784842,2.8594746615930227,18.794517474964945,58.66457059633931,left_2,left_2,2
1123,0.35007515008892864,0.09492866374656557,-0.12256103007256984,-0.15062767588049247,14.933839355126747,54.08594167489967,left_2,left_2,2
1223,0.4254206354175135,-0.0448299063295126,0.02989046206414698,0.6287537270541206,11.396995538259155,46.0411297194998,left_2,left_2,2
1323,0.3935426601044833,0.002674421454072018,-0.25839374655485153,2.3245784512621803,11.692110595313022,39.08379418752105,left_2,left_2,2
1423,0.27690193076550956,0.016229834789037705,-0.18038345515727996,2.8120483693070732,8.705667071295059,33.48901684967218,left_2,left_2,2
1523,0.024066293261833505,0.17332307370394467,-0.3053951517045498,2.274732029520204,7.8910408250261215,33.21593154325782,left_2,left_2,2
1623,-0.11190157198786732,0.18874571298941967,-0.2237715797936916,2.4065487027519046,11.777475588224439,38.55789489312999,left_2,left_2,2
1739,-0.19994701555933797,0.3509108191150426,-0.3102114951711893,0.5167728169664227,14.216773575287016,46.528405318662806,left_2,left_2,2
1839,-0.33051860394954674,0.2591031223201751,0.017261983541846278,0.43129492049441714,16.133616305470152,56.72546759663218,left_2,left_2,2
1939,-0.1806621625008061,0.40282285111218685,-0.18104618607580664,-2.8151675873009503,20.622135907227644,71.11883724970244,left_2,left_2,2
2039,0.06440409772343936,0.39018443571776146,0.09836205764830112,-3.721983458118488,24.41345080134193,79.02195419869473,left_2,left_2,2
2139,0.23012021086152643,0.4024488155549764,-0.2789663451755046,-4.403655995423965,26.050058724596994,84.4280079456248,left_2,left_2,2
2239,0.23775638290882112,0.2558187230481207,-0.16095955895423883,-3.586458652508024,25.859127275029,82.39327956546182,left_2,left_2,2
2339,0.40662343801176176,0.2962219208961352,-0.2579411804817616,-4.940342901262307,25.495538888526834,84.09168396674204,left_2,left_2,2
2439,0.3589824502281224,0.12194495374287158,-0.1945980533113081,-3.9433286799582716,24.049689155707824,77.96873128779771,left_2,left_2,2
6,0.1244369410441567,-0.003968221688767303,0.007133310301105203,0.0513634583387946,0.22606439163641637,-1.6019162025135458,left_3,left_3,2
106,0.1177532863842323,-0.021131818019039926,-0.013419015152007325,-0.5058202711249128,2.1879172182336815,-0.3607133824556683,left_3,left_3,2
206,0.09010072482693939,-0.01055634842336178,-0.002500000122189519,-1.280432463789074,3.617116340795767,3.687040621203269,left_3,left_3,2
306,-0.01323389706954362,0.00271013574153186,0.018560908085107818,-1.442845851195941,5.245492904261269,10.19482043912905,left_3,left_3,2
406,-0.11528466047447172,0.022305209179967644,0.04900877022325991,-1.2121679513663965,9.265253592384342,21.1540641242217,left_3,left_3,2
506,-0.11298599161066114,0.04850231123194098,-0.10852361998736859,-0.9713938153161268,8.230151529094378,34.37036571983909,left_3,left_3,2
606,0.0016099194146692807,0.10691530800789592,0.03801812203586101,-1.453419859149108,10.584625140722473,48.06638326124612,left_3,left_3,2
706,0.18071403881851583,0.06724635002508757,0.017775778282880787,-1.6521939026768409,10.232763676761035,56.08423577697304,left_3,left_3,2
806,0.3596178133446723,0.10155506692290302,-0.1636289535200596,-1.8307684514748839,9.844698965858674,59.179669312595806,left_3,left_3,2
906,0.43065988047134135,0.00760927673384545,-0.16133575724244117,1.0934434687791197,6.7928110878459025,53.80899901915153,left_3,left_3,2
1006,0.39731794085949657,0.03267164644137023,-0.3011995704847574,0.9923332970093645,7.161999418382512,45.414285010308376,left_3,left_3,2
1106,0.24745581493537877,-0.005853928273022215,-0.3126991034293175,4.0095041345559235,3.114963372993027,35.84151499983758,left_3,left_3,2
1206,-0.12135015644546598,0.04275242785528297,-0.48883448730111123,5.0387022303520945,4.1921226249181185,33.25388280636208,left_3,left_3,2
1306,-0.31770364833138875,0.06246750363767143,-0.1579389836370945,5.684508996094671,5.144245018802373,33.94314178418908,left_3,left_3,2
1407,-0.3607826156870834,0.14049015767320985,-0.18433026386082169,0.753809948414452,7.832848453731046,40.61187177090244,left_3,left_3,2
1523,-0.26438652434950694,0.15563210954725737,0.002318681432008751,0.9692375512755804,15.448010731797172,52.03889470705913,left_3,left_3,2
1623,-0.10098811356926338,0.21620856796741483,-0.12455810756087302,-0.9442083550785803,14.915954640855244,59.242885445439946,left_3,left_3,2
1723,0.17715158613679932,0.19975059428483247,0.0351046311289072,1.3720994347918658,15.005453512380319,58.96906589368981,left_3,left_3,2
1823,0.3535212171558849,0.14973802462041377,-0.19013222813785072,1.2684323496898051,12.138980382831608,53.02860004609664,left_3,left_3,2
1923,0.4474416098688356,0.08762599796995521,-0.09877812032938,3.9649635424994303,11.465908099563894,42.801719040513,left_3,left_3,2
2040,0.3104990982072241,0.019957389331758044,-0.06949521031737325,4.695594491577419,7.7268026592009935,31.34700310236651,left_3,left_3,2
2140,0.004324355045352113,-0.05639961112692947,-0.023830489825010303,4.7207121067076585,8.933681888371343,24.580660150148827,left_3,left_3,2
2240,-0.35443497099993754,-0.03678320263952013,0.00902431655049322,3.3993931433711095,6.999238699848094,21.22118584461062,left_3,left_3,2
2340,-0.5546126032776433,-0.04461856513377277,0.03819222188070412,4.050455723671755,9.811486434639717,21.066561845057073,left_3,left_3,2
2440,-0.8127058523044611,0.014836188473552475,-0.08203979046444104,3.07337378195439,8.540918974930145,25.505005530716474,left_3,left_3,2
6,-0.5060641346049185,-0.0953716631447275,0.08581852964063491,1.687100907779343,4.008617391017366,0.3506617696928463,left_4,left_4,2
107,-0.2903244694885332,-0.1873004680041223,0.08854571393728258,-3.0389946473104135,4.3237862605577515,9.842673025029141,left_4,left_4,2
222,-0.05488032913777978,-0.07034072123080488,0.1011297687959671,-4.116093932309027,9.735661399061765,21.390995361057172,left_4,left_4,2
323,0.2837629683348909,0.0137921447002888,0.08695090441346169,-5.32903563738668,14.310039466894079,33.600650229863156,left_4,left_4,2
423,0.6721205977908149,0.06568073736965659,0.02192342870771885,-4.6939980522528035,17.849081324013948,44.18212759252926,left_4,left_4,2
523,0.8727156654627247,0.06779612208843233,-0.07993991505980488,-5.449059072543706,13.286406102305534,50.48504750295818,left_4,left_4,2
640,0.7859971559928172,0.10357651897400619,-0.29343057314455506,-1.9538640096710456,12.748247514816637,46.81582719214502,left_4,left_4,2
740,0.525778283676561,0.050439855165779604,-0.17653998992383477,2.7768819330759666,6.5339860638241,38.61447618021438,left_4,left_4,2
840,0.0029426256698928733,-0.04755582416206596,-0.29290859509706496,2.800168780032208,4.697708317731661,35.92573396437952,left_4,left_4,2
940,-0.3074895630472712,-0.00399719449043272,-0.07851309712707996,1.218531137024081,4.8123386995530675,34.1270938049537,left_4,left_4,2
1040,-0.5800239973987079,-5.617255359888352e-05,0.10435480987012384,-0.17089975337630464,12.176169439513174,38.71658682528716,left_4,left_4,2
1140,-0.4419950020213797,0.16537264076918362,0.06965981168150907,-5.252329411356262,15.78548570427679,50.277286125765826,left_4,left_4,2
1240,-0.13649465098973362,0.1482418531654775,-0.04711725738823409,-11.216171239874344,13.42732528460077,61.1055005717267,left_4,left_4,2
1340,0.21947694403316825,0.204000857527405,0.016284546037912406,-9.551249621188642,13.044110691028033,63.42025236446293,left_4,left_4,2
1440,0.4646312770931423,0.12283701208278534,-0.09003636166036125,-8.597048267131424,9.77025220909438,63.66069961192839,left_4,left_4,2
1540,0.6819972824271582,0.11834104506388306,-0.22932944772958752,-6.532084005550641,2.564755243246829,55.69029915244123,left_4,left_4,2
1656,0.4866844075549208,0.03573030335962772,-0.10139081627190114,-1.9192229870758628,1.9987647874845522,44.09586452312349,left_4,left_4,2
1756,0.09780721120430155,0.012529869679510619,-0.1544394510835409,1.1442035990773154,6.127868565303843,32.27247683018504,left_4,left_4,2
1856,-0.3087264040593244,-0.0043351358209550205,-0.086937226601243,-0.6216632636540262,5.46361636144346,28.825087061726094,left_4,left_4,2
1956,-0.730113115092162,0.07264774145111441,0.015325813234448437,0.9754490693810937,8.208951048797482,26.065429723814646,left_4,left_4,2
2056,-0.9637649085731059,0.049823418380916105,-0.15069383481442927,-0.6024570491843856,8.145287794694806,27.662729566886828,left_4,left_4,2
2157,-0.7952972755436971,0.04151639786735175,0.0244228443080187,-0.04252847168785991,4.327297874253466,29.808487453140778,left_4,left_4,2
2273,-0.4620436206070706,0.09260808261841531,-0.10941489896476268,-1.483069155383263,1.5476065669779973,26.408808861223214,left_4,left_4,2
2373,-0.21479607630087993,0.10725154691841449,-0.11465996001139284,-0.7672012653259459,0.9787962302642838,24.30771680494749,left_4,left_4,2
2473,0.13224794358865669,0.04644362513646479,-0.38943809868494667,-3.1873481169912345,-3.6550211657284506,22.599251670200676,left_4,left_4,2
5,0.4989475684204449,0.07120889210949337,-0.36754561066925523,2.86028201841204,-14.952067572773954,9.770409090001879,left_5,left_5,2
105,-0.13601577777834606,-0.06442848689928651,-0.3679062606751919,3.197609942610651,-11.086840594083947,13.010200626740088,left_5,left_5,2
206,-0.20230423890344795,0.04386088594079014,-0.15792483820736408,2.948617039932105,-5.023573953645983,18.389685972999356,left_5,left_5,2
306,-0.527299680904299,-0.01916132897019386,-0.034611762271523495,1.7373080275425203,2.106269446388297,21.92877649521706,left_5,left_5,2
406,-0.6491511160158365,0.1157905714765191,0.005848375315070165,1.6765958420481106,13.629986004587016,34.422689152372264,left_5,left_5,2
506,-0.418924485637769,0.09758031807303427,-0.01906032358765597,-1.0299697524259095,20.204519144909437,47.97249889600972,left_5,left_5,2
606,0.1808544044438005,0.2680958162364363,-0.184033092932105,-1.8893394900583715,26.366701854895826,53.267005408509725,left_5,left_5,2
706,0.37766149992916737,0.11962842529982329,-0.1647474946081638,-0.8782277832091614,24.01208241872895,51.656717960730774,left_5,left_5,2
806,0.5771125121324883,0.12639829937398434,-0.31679274403154845,1.329774534757783,23.519527083337522,48.59762171451138,left_5,left_5,2
906,0.6127666413301044,0.11741174293756482,-0.3843635913836956,0.1147460361339622,20.81229486240051,41.37745947874216,left_5,left_5,2
1006,0.19896879260411496,-0.015575345629155624,-0.3199672824144363,0.7395258510732428,17.91260379084236,35.55891626443777,left_5,left_5,2
1106,-0.12866212707990773,-0.08655494928538798,-0.37759342504858967,-1.366675474850253,14.584237923388429,37.67481734477283,left_5,left_5,2
1223,-0.3278615245292894,-0.0781532654517889,-0.28282956724882125,-3.7299247696560727,15.03668177759585,42.708381261164924,left_5,left_5,2
1323,-0.4991455593797749,-0.07652870376378298,-0.33499849661648273,-8.12730113184581,14.246709952909722,50.36300431683056,left_5,left_5,2
1423,-0.4443163576410337,-0.07032698496639729,0.11388345190703868,-5.600851339700389,13.479909544982863,61.209167816911304,left_5,left_5,2
1523,-0.17881281561359758,0.058823857212215634,-0.12289841610729695,-7.272186548705415,13.444970736812039,65.57535736459604,left_5,left_5,2
1623,0.09597320436343555,0.06417065429374574,0.0536473021310568,-3.874585956465464,15.100576489734028,59.78155036338976,left_5,left_5,2
1723,0.2502520105653815,0.057143912075161916,-0.13420388778448103,-2.434332994488847,13.078043065488568,52.61204115201482,left_5,left_5,2
1823,0.3758636603802256,-0.01066395890325308,0.05042974293708802,0.46240265421544074,11.247872703797226,40.09226564205791,left_5,left_5,2
1923,0.23698454367306082,-0.09236284645959733,0.09190659789860249,0.5920461760306766,7.629724172007481,20.832744790284988,left_5,left_5,2
2023,0.061875755596123704,-0.17312541762694714,0.12123977679312228,2.8473856109602407,5.122757878667662,9.251836822346018,left_5,left_5,2
2123,-0.23152054995264848,-0.19370555657997723,0.14480863462030885,-1.0375151691237279,-3.9877510759469166,3.4232732936423873,left_5,left_5,2
2223,-0.5417211255242862,-0.158194448928982,0.15350959366142747,0.42254807352159335,0.6602473010962058,-2.443926480761891,left_5,left_5,2
2323,-0.722258659738372,-0.10163480301517988,0.10088906268179414,-0.693823902742265,-1.3993065381913445,-3.352859095238303,left_5,left_5,2
2423,-0.8815726139121378,-0.15392117500801875,-0.010504053198297855,-0.32685265516763257,-1.6599889699036037,-2.160302772312796,left_5,left_5,2
6,-0.4237669231357673,-0.3007887295325597,0.12299607023100056,2.378716862937647,4.318050858219546,15.599423510797656,left_6,left_6,2
122,-0.5132065293503925,-0.15285638314317912,0.1557518488563597,2.1458805255021476,7.897288086898943,19.440872448765784,left_6,left_6,2
223,-0.5400932430212945,-0.09107686907619242,0.16057891829967497,1.6486966804031506,8.25774848154899,23.919894160218185,left_6,left_6,2
323,-0.7167130274895951,0.0352981371004879,-0.02301438036262986,0.5678714525071011,8.908095188655512,30.819385161625554,left_6,left_6,2
423,-0.333176534579806,0.0029544366653263244,0.06886836904287341,-3.479827910972497,7.704354431408783,42.4903807473878,left_6,left_6,2
523,0.23351246903527517,0.1498296776527166,0.020361936931610126,-4.370306673658623,12.02521226970423,49.22490082373402,left_6,left_6,2
623,0.5514384256543591,0.00412900417655705,0.00820949303627016,-4.538586377141481,8.79189087511724,52.58440723116132,left_6,left_6,2
723,0.6579048062379285,-0.1243680794945359,-0.08589666073322291,-5.180252025870706,3.6705837873262253,49.95657527630679,left_6,left_6,2
823,0.6891739727767556,-0.229984083019942,-0.10007751249015326,-4.513185840101173,2.684491789114372,39.99021599911215,left_6,left_6,2
923,0.366270859759394,-0.20642969210952516,-0.12027753685832021,0.9351003325049227,1.4180976212337515,28.794680297512986,left_6,left_6,2
1023,-0.1573560070771538,-0.2420771687173843,-0.16779682840228077,2.9710805155880293,0.4963815219871023,26.701992298091113,left_6,left_6,2
1123,-0.37966389656666666,-0.06587924100339412,-0.06956266414344307,2.398003333019383,3.6195032784672754,26.050373809761147,left_6,left_6,2
1223,-0.4319783280457184,0.05342874939650295,0.011546528504490852,1.153855688907046,10.225054015358017,31.008136286744435,left_6,left_6,2
1323,-0.3840489249841683,0.22719705342382185,-0.12378092725634574,1.8311463957237382,16.554984250369216,46.07676708526798,left_6,left_6,2
1423,-0.14115546048805117,0.24816990340843792,-0.13436603415668008,-2.541954791136857,15.84333454640508,58.92552548678773,left_6,left_6,2
1523,0.22829724052459,0.28556381451830265,-0.21306407400965685,-1.4844349797738547,18.210874651424866,60.85715557652395,left_6,left_6,2
1623,0.39386535637347025,0.16803902504727242,-0.24073837978124613,-0.7428200833264518,16.422814455023403,60.08850111374689,left_6,left_6,2
1723,0.4104875734005309,0.16170090806692836,-0.2703344766217469,2.301410256164405,12.30091554493878,53.90264296172916,left_6,left_6,2
1823,0.3610801829947065,0.0763842976309359,-0.22551778048694127,0.6128719777629155,3.9840658633884916,39.669038946553584,left_6,left_6,2
1923,0.0005390150339435795,0.002161591174155478,-0.22505530676782123,3.8669947134671814,3.772282102416541,23.205797370229163,left_6,left_6,2
2023,-0.32122583293479867,-0.10817509881064294,-0.15495511629462239,2.0608828820422436,-3.913789876263504,14.255982703104298,left_6,left_6,2
2123,-0.6569138315723556,-0.0698804686948657,-0.15281471403896804,2.896856756496008,-4.459644251333666,5.6383171471093885,left_6,left_6,2
2223,-0.745779622389907,-0.11377516922697421,-0.07392693838059898,1.9971468223918816,-3.1708049719346434,3.0770764630773546,left_6,left_6,2
2323,-0.9029469476277009,-0.13467917714603242,0.20615458688214422,3.750879517889322,-2.6185179567206758,2.166147217553883,left_6,left_6,2
2423,-0.9801857310185831,-0.13979259899208937,0.11372009752293429,2.4660122300591096,-2.130902267497856,4.329986898385359,left_6,left_6,2
4,0.7735173493954042,-0.09235182822197674,-0.0375921614507834,-0.46515991264861967,-0.7657594017199862,25.58690917496625,left_7,left_7,2
104,0.5446711052102037,0.002673128199391084,-0.27644875094443555,-2.3663178506719404,1.876817842991204,19.734545983723148,left_7,left_7,2
204,0.26673202437646687,-0.08218187799379227,-0.1550572907209396,-0.30521151739017416,3.7464303913609145,17.233683627673326,left_7,left_7,2
305,0.03588267360322177,-0.05053621359929441,-0.11415958004772657,2.405443994358849,5.386113095025584,21.279440656107703,left_7,left_7,2
405,-0.19156998393643646,0.01908984194308519,0.07165361584722998,3.571026437719932,8.106746744755714,28.004118429859933,left_7,left_7,2
505,-0.43142193627197295,0.08940668545469639,-0.013280804951190897,0.8953913122136331,13.355179874699946,38.97480652379376,left_7,left_7,2
605,-0.3588022153389454,0.18273276553630824,0.03310883958876134,3.9146675555718486,18.144041165018926,56.43491903330265,left_7,left_7,2
705,-0.022883476685434577,0.3614120763503014,-0.028562194522023198,1.1327053811520797,16.359722887754252,70.54040833644265,left_7,left_7,2
805,0.21623001992076635,0.3039074850431084,0.02315583465993402,3.882764424977636,17.584543828591123,69.21475399590778,left_7,left_7,2
905,0.33991463988926257,0.1976883426058292,-0.06604091975808145,3.987470627312379,15.8800690113087,60.91896229983284,left_7,left_7,2
1021,0.44287882103815673,0.2607954300951958,-0.4293371731936932,2.393996415883007,15.07146084471746,50.473825502151854,left_7,left_7,2
1121,0.38837683830652386,0.08659569046109916,-0.019498013578653283,2.2696636649682334,8.427037953795445,37.19434802911775,left_7,left_7,2
1221,-0.02086759951185435,-0.05497314390733835,-0.30480478459596627,5.30146698752844,13.027575219262085,33.314453606940674,left_7,left_7,2
1321,-0.19026521417427805,-0.008979892886877056,-0.09660837507486338,1.7285993015630006,12.395825409718217,36.054211871724206,left_7,left_7,2
1421,-0.4168274183737114,0.0326477102699876,-0.16227005703091613,0.43065221036568946,17.102636918198307,43.39777957485099,left_7,left_7,2
1521,-0.5116738837295397,0.06153370069280267,-0.0062744917726516025,1.099498484839188,21.589100803770357,56.05135422178023,left_7,left_7,2
1621,-0.33478512420717627,0.1681944494177401,-0.13585644807100292,-3.046928274885183,23.436376872645976,64.19658805798058,left_7,left_7,2
1721,-0.0423389553368278,0.25211197748467323,-0.04859738371729849,-4.8718371124071975,21.0570359082877,58.40724526841583,left_7,left_7,2
1821,0.12242859567867588,0.16971379716560245,-0.2758105114930868,-4.661355356245782,17.25972244322353,50.31027184134348,left_7,left_7,2
1921,0.2542873597221635,0.15752876617491243,-0.17677192820966242,-2.350874470125382,9.661433080284866,36.83923983473434,left_7,left_7,2
2021,0.22463404549518592,0.0855963041602075,-0.20169734443843357,-2.283200870451531,6.038049485972741,15.838644340879398,left_7,left_7,2
2121,-0.05332214356360958,-0.07281973701715468,-0.25579087058007716,1.5817356935753142,4.014677421218911,-0.19325422614998686,left_7,left_7,2
2221,-0.22613537170253695,-0.08926368217438457,-0.11473311292588706,2.6349436331957135,-0.038577276622117115,-4.8692955616644396,left_7,left_7,2
2321,-0.40305738869379276,-0.06076616499945519,-0.15249503901749842,4.662946881035845,0.6325896226569807,-9.71359589665083,left_7,left_7,2
2421,-0.5304898796028147,-0.021721953754375356,-0.38203220634261753,2.4917494856426785,3.5656446453029687,-9.783733010377476,left_7,left_7,2
6,0.7244099605873227,-0.042990318522353965,-0.38764088871479035,2.000460666537222,-1.432732852552628,16.624737856088746,left_8,left_8,2
106,0.3784799328660592,-0.07635945545062423,-0.30567119216695426,1.167598186931627,1.726399308303511,12.775740242853384,left_8,left_8,2
207,0.11195495344944298,0.042249534447491154,-0.43622927079498763,-0.579015818608562,2.4153125398202895,17.47114399072606,left_8,left_8,2
307,-0.12588832594480362,0.20056898338258264,-0.31033821951687335,-1.5114562540031424,5.271128482518348,23.71412028269693,left_8,left_8,2
407,-0.3641335225903987,0.3134157857182622,-0.42581624713897703,-3.9922137454597886,10.641213941014946,33.65154111559528,left_8,left_8,2
507,-0.2241957381029427,0.3212656808879971,-0.20364368542671202,-1.0648020950230461,14.955337127411397,50.52130825155419,left_8,left_8,2
623,0.06690859866417945,0.38440339732438317,-0.19769722733855247,-0.5125833710286073,15.896858043175417,62.12145910887699,left_8,left_8,2
723,0.35964553429529067,0.2463876669406891,-0.00602875877022742,1.7010512276496357,18.417806416765167,63.935922767552974,left_8,left_8,2
823,0.399121665813215,0.07468979789882897,-0.05108148484408852,0.8702206137069378,15.613226113597586,59.42708608509035,left_8,left_8,2
923,0.4796181991489976,-0.02272831534981725,-0.06058253744781015,0.7851404476880386,15.912742715307337,47.89128214111747,left_8,left_8,2
1023,0.3804087528106942,-0.06947662252128121,0.01791290711820128,3.0973675463749464,12.198324139925804,36.378762653534615,left_8,left_8,2
1123,0.021884930634759336,-0.07785276274830104,-0.17289876926422115,1.5588571478571371,12.170226107718204,35.34374720558107,left_8,left_8,2
1223,-0.12750774384018032,0.1341228145983815,-0.05591793586373328,0.19785952388655081,12.845329518490354,38.62030847874665,left_8,left_8,2
1323,-0.22480055751524866,0.26095243267476553,-0.19695289716422554,-0.46091119703280353,19.428770378084895,44.73058888005089,left_8,left_8,2
1423,-0.27567786886326967,0.3810607504460215,-0.20464917998135085,-2.8586498735620616,22.59434039421886,60.257216348511044,left_8,left_8,2
1523,-0.27942870929677033,0.3442398753707111,0.02276701069891458,-10.56464858763616,18.739788791315565,67.12871518564296,left_8,left_8,2
1623,-0.24076144647631798,0.23588760797530411,-0.1458733996945619,-9.311828524268611,17.833539996953867,61.91207624477566,left_8,left_8,2
1723,-0.2021876888919063,0.010910188749283544,-0.09792249718725676,-7.409757486892144,9.468777050640126,50.61337787821681,left_8,left_8,2
1823,-0.06434666844777767,-0.07682648844048379,-0.003279050896763741,-5.725526197715216,1.6957049397654906,33.321972620688484,left_8,left_8,2
1923,0.13215204059511415,-0.1730217818959057,0.1666609854662419,-2.06281236779409,-4.969948729745697,8.601834714291382,left_8,left_8,2
2023,0.28477302946679284,-0.1486215293589234,-0.2746468453150987,1.820218477249859,-4.963386881632701,-9.485786868371761,left_8,left_8,2
2123,0.36905725003469736,-0.13113023787975306,0.08197077791333197,1.014094151638978,-8.727673692672873,-17.690786055092836,left_8,left_8,2
2223,0.18047370899030937,-0.14081933117538686,-0.11348737987458705,0.21464680551729015,-5.56780287175973,-17.449314279251873,left_8,left_8,2
2323,0.17063053389792332,-0.13610855236202477,-0.19159049334824085,-0.3716722675665014,-5.962321535130542,-16.045935246103994,left_8,left_8,2
2423,-0.1449235443172976,-0.15463818852603436,-0.24115853411555288,-1.6744752319507707,-6.346612488253887,-11.860209413508707,left_8,left_8,2
7,-0.0150161907717275,-0.032138620930165035,-0.06308335590064523,-3.046463299085264,7.008447431248759,3.4860138621146946,wait_2,wait_2,5
123,-0.01269696165488565,-0.04339786423239855,-0.055898705093562574,-2.3510520510417385,6.220697879756898,2.935402849035696,wait_2,wait_2,5
223,-0.00789710627211258,-0.04520125308603046,-0.036753801188468924,-2.037652496204446,5.63568726814684,2.30410447764337,wait_2,wait_2,5
323,-0.02360593112803994,-0.05535287855297324,-0.03865817350506778,-1.4748345139012522,4.569152194048803,0.6920372960101189,wait_2,wait_2,5
423,-0.013489112112997099,-0.08144517583012575,-0.02078805338919158,-1.44539755117292,3.456504581201135,0.39727434588013616,wait_2,wait_2,5
523,-0.0003631196109205398,-0.07249404142022128,-0.005896656823158241,-0.21032727115621253,1.1698897260703376,-0.3377763225602319,wait_2,wait_2,5
623,-0.00968446461291982,-0.06738663527861233,0.009415361694693578,0.17396893089636198,0.49304232254316266,-0.6788765673522211,wait_2,wait_2,5
723,-0.00934832799373192,-0.0621853549215197,0.007556815894246118,0.3792238207624026,-0.22726575609970318,-0.6973961183586082,wait_2,wait_2,5
823,-0.008763502883315061,-0.06067816522896284,-0.009435352343320842,0.28061761768671556,-0.20316047105399435,-0.4987809087455898,wait_2,wait_2,5
923,-0.0076967047688644,-0.0516516274952888,-0.02978454669773578,0.468736299304964,-0.25379836231038755,-0.3835257727224529,wait_2,wait_2,5
1023,0.0020581034002173796,-0.0445716937847435,-0.0472594131118059,0.680605138820763,-0.012835280816117334,-0.30122339928227293,wait_2,wait_2,5
1123,0.0223120261665061,-0.03863438346415754,-0.06293044497430322,0.3948382628631158,-0.29445218719491767,-0.29994884863055155,wait_2,wait_2,5
1223,0.026751340227881438,-0.03122843266963956,-0.07778104191243643,0.4707976077077916,-0.45449986921364216,-0.2475419810678073,wait_2,wait_2,5
1323,0.03993419209677722,-0.020285539920628082,-0.08246703699767585,0.5182069432487139,-0.8478153307291333,-0.0959614177588832,wait_2,wait_2,5
1423,0.03649743536754506,-0.026201544418334978,-0.07551309698045247,0.6506190982522703,-0.603237639087909,-0.037278678902040355,wait_2,wait_2,5
1523,0.04076311172169628,-0.02097486658513548,-0.06224257961452,0.3597740059951876,-0.5842792537634338,-0.08530744056353139,wait_2,wait_2,5
1623,0.02595909752490926,-0.0217817990538478,-0.0613798253053426,0.3567555452977606,-0.22933356452142348,-0.04166705943551767,wait_2,wait_2,5
1723,0.02138411227967586,-0.03642588440835476,-0.07002361810564987,0.20291752442686795,-0.01984392268542064,-0.012728204260664214,wait_2,wait_2,5
1823,0.012564250526409559,-0.03802349963724609,-0.059720250756144455,0.10077050326067871,0.41194614383514033,-0.09393056773088568,wait_2,wait_2,5
1923,0.005320422357888879,-0.029190730910003137,-0.043159225864410344,0.13507892232370827,0.4613992273892145,-0.09452920179512556,wait_2,wait_2,5
2023,0.0022070925500057596,-0.0337218276944756,-0.03829483469843862,-0.10554544848879541,-0.032271093695533805,-0.09145917583750761,wait_2,wait_2,5
2123,0.00352295544165186,-0.0364559288334846,-0.04853437225759026,-0.16455091111587872,-0.11368163919722321,-0.0016828145371883152,wait_2,wait_2,5
2223,0.0011353387859091,-0.030273674615025458,-0.032191023317575417,-0.1274613377403978,0.1185856536563114,-0.017190268127855676,wait_2,wait_2,5
2323,-0.0009553302467451502,-0.03699643622487778,-0.024107144035398924,-0.12728063187909408,0.07660496714194981,0.006458384087283404,wait_2,wait_2,5
2423,0.0057488549834582665,-0.0408121951207518,-0.022799665988485,-0.34615392043518045,0.009898447104704814,-0.014954005496655329,wait_2,wait_2,5
8,0.025887122787348903,-0.043201136083900936,-0.1993077410171429,-7.136832078052159,-2.364090048403966,-15.684694722899465,right_1,right_1,3
108,-0.1942576575977262,-0.0183528913576156,-0.12719956198036672,-7.61014458631408,-2.635893317638951,-17.803796700241257,right_1,right_1,3
208,-0.46244471952777355,0.0231446995179355,-0.12055308047711848,-6.354318706103197,-1.9240752601839464,-21.255985316922374,right_1,right_1,3
308,-0.6899064809958637,-0.04015691685631869,-0.10771990238904956,-3.871215983817662,-0.9094073299660049,-25.250782133204556,right_1,right_1,3
408,-0.8176418303533642,0.027075813808739184,-0.2656917361563444,-6.622866290965102,-2.602611993608447,-27.62398736787668,right_1,right_1,3
524,-0.5588988465824724,0.0368912807369232,-0.0548211389899254,-4.018335569152751,-4.652631587841833,-30.19246566186272,right_1,right_1,3
624,-0.20798004874363546,-0.014620762931108477,-0.09755483291864393,-1.1718167518868665,-4.634174324959025,-34.311710061615095,right_1,right_1,3
724,0.2926120379163324,-0.08509922674521804,-0.06960673709392548,0.07149624310889457,-5.30902719585468,-34.76677824525636,right_1,right_1,3
824,0.6947921925977617,0.027126521082669462,-0.04275485362112522,-1.7518475366060915,-10.054026334672992,-40.88870275305764,right_1,right_1,3
924,0.8154165975318381,-0.0459713314495981,0.2467686583083868,2.811274742327842,-11.00833455984638,-50.387786292196125,right_1,right_1,3
1024,0.4936056234794761,0.056071518990248426,-0.10048796376109123,-1.479638906316037,-13.39532345777305,-61.40585267632666,right_1,right_1,3
1124,0.15939213976084252,0.11864683769047257,-0.1207231763470173,-1.6544004806655792,-15.403387505123892,-70.84394672429043,right_1,right_1,3
1224,-0.20402066733957266,0.22538249289557336,-0.21547592823088166,-2.2561333163545325,-19.43968621566168,-76.93105570883542,right_1,right_1,3
1324,-0.470173317272244,0.1945555098597705,-0.12537047608315943,-1.6233247207676076,-17.53745291860374,-75.97988356501943,right_1,right_1,3
1424,-0.5165278521395661,0.18437977286487817,-0.24881062707781793,-2.233595058131324,-17.37486846163859,-70.46294921012229,right_1,right_1,3
1525,-0.4910770457167737,-0.04309788029208781,-0.08707844708979127,1.0532275497338364,-16.50401217076334,-60.63377014160518,right_1,right_1,3
1641,-0.2150614912513084,0.013655629612952459,0.15283376945257188,1.0207823582516187,-16.285810166405692,-48.94056278066205,right_1,right_1,3
1741,0.16682634305557237,-0.09189677793085574,0.1309590898704529,0.08254774531806967,-10.543964000065012,-42.059169731498464,right_1,right_1,3
1841,0.4734148583033681,-0.13064648756384847,0.10045932218849658,-1.5290312058555724,-10.490658300951834,-35.43631163676037,right_1,right_1,3
1941,0.7158879748423026,-0.11086854645222424,0.14213643434941767,-2.5140439488011994,-8.785252870394999,-32.35952110247714,right_1,right_1,3
2041,0.9865376256669685,-0.09948974650397895,0.23903449847280975,-2.4148476814142468,-6.017090154042229,-32.835086000798704,right_1,right_1,3
2141,0.8889237925700844,-0.1432490425403416,-0.02868833434581758,-5.619172105521502,-3.8698800415046883,-35.08404394729804,right_1,right_1,3
2241,0.6045989306491614,-0.1667044738948345,0.1394853937709331,-5.5730187243750695,-3.5783511752745367,-34.41440263880516,right_1,right_1,3
2341,0.4397660666190088,-0.18398864004239435,0.060630409790575476,-5.574046705197754,-1.7191191804219237,-37.297283590287535,right_1,right_1,3
2441,0.23415532864506053,-0.21294317539880667,0.03632160570323464,-5.362290839501,-0.060589967796949175,-39.07794265062261,right_1,right_1,3
9,0.6482938732609774,0.07514111699188747,-0.0817691568295161,-1.76848012156691,-10.725029661148966,-28.554173300121846,right_2,right_2,3
125,0.6297705785505939,0.018595358343981204,-0.01128492573276163,-0.03240359136130411,-11.999575768304398,-36.84307899868944,right_2,right_2,3
225,0.47647846904464064,0.14305144491553307,-0.22019933271706105,-3.4969744658896653,-11.25798153851532,-43.90528277924099,right_2,right_2,3
325,0.21985584573511038,0.08308882215782999,-0.18959177919864656,-3.622018922515955,-10.280684625487302,-55.282172809908694,right_2,right_2,3
425,-0.19980035901721566,0.09564888239294289,-0.27343045526266097,-4.664301051416165,-12.045610715037839,-60.1823376676591,right_2,right_2,3
525,-0.5633563301414624,0.03687275139302016,-0.08778782285511495,-3.253797405256362,-7.895591361187407,-61.334352207038215,right_2,right_2,3
625,-0.7930391359664126,-0.02279740583717822,-0.1590508611756563,-4.258334457387882,-6.966464165181835,-57.09085403043334,right_2,right_2,3
725,-0.7777115874326042,-0.18131693661510942,-0.0460197590881586,-0.595095513985629,-7.330091313007536,-49.52279542627062,right_2,right_2,3
825,-0.3621378004622272,-0.05585071584641932,-0.017136428239941593,1.5372743050327664,-7.971683969426093,-44.84366368628883,right_2,right_2,3
925,0.2306846507710405,-0.05353557077184316,-0.03142868986904619,4.590976665487233,-0.14475299949287362,-39.97393073638541,right_2,right_2,3
1042,0.7045517682735063,0.08224749057590963,-0.21061796680569644,1.225145417511127,-4.798955402777763,-34.80656717075682,right_2,right_2,3
1142,0.9721527575042284,0.15193027396768333,-0.0434510191917419,1.1401772665946157,-3.7726597158281088,-35.50628111914635,right_2,right_2,3
1242,0.9249740485990794,0.2609561151626706,-0.17024200037121767,-3.6047320979247943,-7.409490245068696,-39.96129864302493,right_2,right_2,3
1342,0.42933689554579557,0.138568045117259,-0.23646985022962083,-4.2616884644685,-8.32911294469559,-44.00162328050294,right_2,right_2,3
1442,-0.11140092898935072,0.12718445208951829,-0.33054467362582673,-6.281812576836833,-16.03272689822098,-46.689946122722766,right_2,right_2,3
1542,-0.5713322920697553,0.03718266489893196,-0.13456453779041763,-1.8488481969956616,-12.401571402407026,-49.39788151163484,right_2,right_2,3
1642,-0.7696671670312434,0.055774143478870386,-0.2625757668668032,-0.803802317425171,-10.454767876674897,-44.23074607432452,right_2,right_2,3
1758,-0.73674228378769,-0.1078990875743329,0.010628127711415308,4.0881485121406955,-3.56588253687863,-33.480018032752014,right_2,right_2,3
1859,-0.44316470338787867,-0.05670835558906194,-0.02134650560259817,1.670919890814806,-2.1962810089879437,-17.65435771073008,right_2,right_2,3
1959,-0.09178536075215779,-0.07266568627312774,0.29447639970958234,1.5098497294773305,3.918454383202434,-7.638289469350518,right_2,right_2,3
2059,0.24781457255169753,-0.04417454038679595,-0.08466612525105473,-0.610039114115971,7.118530685778035,2.522579636206964,right_2,right_2,3
2175,0.535705551375933,-0.03324485783249136,-0.09772890353739257,-1.5879472063447417,3.2866098047838337,5.391054181937219,right_2,right_2,3
2275,0.6957734441070259,-0.06289043445095419,-0.24671476539015763,-1.281410877715508,3.767826940775673,2.4224999051952105,right_2,right_2,3
2375,0.9197029251826927,-0.07829539194926617,-0.2639053495831787,0.2258050601147359,4.038856701759324,0.44476292228760084,right_2,right_2,3
2475,1.0020033271671585,-0.08586368395661313,-0.5943496510585148,0.08712371415118884,0.2872803178116759,-2.0045051345951252,right_2,right_2,3
8,0.6518347668269958,0.0471500198401511,-0.7482367289563019,-5.490350589858096,-13.956082273222309,-19.47963491067047,right_3,right_3,3
109,0.3292509832934243,0.06438139635454865,-0.42247225586026904,-5.898787275553641,-11.036867461660696,-28.57495806380083,right_3,right_3,3
225,-0.1430138345851936,-0.006745587189644564,-0.4237335956460237,-5.630489280745048,-10.558924846423007,-32.43305167474165,right_3,right_3,3
325,-0.5966088123313524,-0.08238561309844253,-0.24009739307701583,-3.1342752419513915,-10.424297549013824,-39.29738103305652,right_3,right_3,3
425,-0.9379260198014416,-0.12355784447714684,-0.14520646021842953,-1.446479277046635,-10.216995672797871,-42.729644323070104,right_3,right_3,3
525,-1.0605451623096318,-0.23172294796347614,-0.059315060182213775,0.7183847827499548,-12.378382739420102,-41.911009951041464,right_3,right_3,3
625,-0.7849833502675592,-0.21563474282830955,-0.012513912231922154,3.3258906922760807,-16.955566563586093,-36.62945620928347,right_3,right_3,3
725,-0.04906052963659162,-0.16465920257672667,0.17020166836082934,6.0304761295323495,-14.901247386614525,-35.503688720846874,right_3,right_3,3
825,0.5122646673099697,-0.03252966607436536,-0.09277624956607819,3.5050304178836016,-19.01468868689333,-39.16890961439154,right_3,right_3,3
925,0.7851268357784301,0.04259142130076886,0.006427285794615734,1.2956493408553251,-17.044304471996348,-46.365681867348044,right_3,right_3,3
1025,0.9471521827202292,0.21005071753785015,0.1124527761298418,-0.9945546666265228,-15.313492530651724,-55.4060594640933,right_3,right_3,3
1125,0.6503176901902258,0.19414155145749448,0.045105800661444664,-3.9461962423891563,-11.393881412224665,-66.51443529244867,right_3,right_3,3
1225,0.1619371718147397,0.1369376382103562,-0.13308862001895902,-6.450172791174532,-15.077078787367588,-72.69050202678173,right_3,right_3,3
1325,-0.24273902285307644,0.045149873611926995,0.1711595828336477,-4.209679412736225,-9.822661557936783,-72.62709533165975,right_3,right_3,3
1425,-0.34823688354479143,-0.030143618494570264,0.019213819035887748,-3.7644357091640783,-10.410245544702263,-65.19132041624724,right_3,right_3,3
1525,-0.39752033156380057,-0.24141926010444759,0.06320517026245598,-2.21179710703678,-8.523478869510361,-52.095529611128484,right_3,right_3,3
1625,-0.13450908858265725,-0.2132166342228651,0.14909095888853074,-0.33437402390774873,-7.923683331602116,-35.60717539290531,right_3,right_3,3
1725,0.21969815634232015,-0.18872183527022598,0.2482701781386137,-0.6917758811918073,-1.060767993200166,-23.416645224530093,right_3,right_3,3
1825,0.52806510501232,-0.20500492000341416,0.11629460470199589,-2.618172253099136,0.007662533097743918,-14.944105820472322,right_3,right_3,3
1925,0.7156309349945746,-0.1837877983210981,0.1782570814269781,-4.326608067835977,0.6360591012892327,-11.779292589298393,right_3,right_3,3
2025,0.8251276049184426,-0.07334396547392011,0.267546190303564,-1.615149667350019,1.4876789327634277,-14.710160230077799,right_3,right_3,3
2125,0.8186165498305111,-0.025160510932803172,-0.3055753013509511,-3.393707299035679,-0.12132964747080947,-20.659884996732472,right_3,right_3,3
2225,0.5544884681812674,-0.010288491267412903,-0.13338520642578594,-0.2573688703794382,-3.6641479428632038,-25.15572348769509,right_3,right_3,3
2325,0.4390546121477149,-0.012980368006415654,-0.10007599273324004,1.1499688550340166,-3.773457945495576,-29.381774799838816,right_3,right_3,3
2425,0.2851227391713609,0.04244705413604777,-0.22939074459175254,3.524085336548346,-5.064864071127333,-32.62540374673876,right_3,right_3,3
10,-0.47144525334388016,-0.11830956856012342,0.03238017460107803,-4.35371860409998,0.27535964557149484,-12.303482145044583,right_4,right_4,3
110,-0.6852915637724102,-0.13293057991303503,0.07843304685428737,-4.059529016334308,0.7176437072250085,-13.176712581216211,right_4,right_4,3
210,-0.7580598336371779,-0.1706629438100755,0.086653733484745,-2.606954798637471,1.1880870735747997,-12.529673649347366,right_4,right_4,3
310,-0.8038858529449999,-0.191666656550467,-0.01909060182154183,-3.1097064965539856,0.12227618095568396,-13.123280438226024,right_4,right_4,3
410,-0.5959962589637936,-0.10865466979503631,0.11632815625846385,-0.2553725341510905,0.17939782138078222,-12.229932334413919,right_4,right_4,3
510,-0.13292270348057147,-0.0018132745800912397,-0.03556406533420087,0.18101713116694515,-0.8791467531454746,-13.770450424349571,right_4,right_4,3
610,0.358595996016264,0.036292145799994464,0.015373744029402725,-0.21766498073415425,-3.4289472118271958,-19.218680589404475,right_4,right_4,3
710,0.7689262124708295,0.09706737088873982,0.0103500121963024,-0.8764054887386019,-5.53301644084042,-27.5407715873691,right_4,right_4,3
810,0.8830960143451019,0.25338646901294587,-0.057186815981864945,-2.9631268056562745,-7.652869980893449,-35.92896105800761,right_4,right_4,3
910,0.5435198930017278,0.1389211840169132,-0.20142074868023402,-5.042383110009264,-7.229508218398297,-43.319626501310964,right_4,right_4,3
1026,-0.04842370034430168,0.017870324698537644,-0.1698922224724293,-6.434446013806314,-11.757947394368458,-44.84421010142243,right_4,right_4,3
1127,-0.5519572765097394,0.012054887191951344,-0.09570867898225788,-4.259184186281484,-9.325219707777975,-42.55222059711418,right_4,right_4,3
1227,-0.9534330677010491,-0.045989743889123136,-0.0838536398243904,-3.4598411606271973,-9.743610458595192,-37.212762560629564,right_4,right_4,3
1327,-1.1293085073819753,-0.1361027948214113,-0.0882657279521227,0.21526273917003716,-7.118082838811892,-30.38790127967888,right_4,right_4,3
1427,-0.736772174775824,-0.060201575306206914,0.11896879234731195,1.2471028748671305,-8.964535944597724,-28.082385268738328,right_4,right_4,3
1527,-0.15030610683195295,0.03805018306151033,0.024941081415414755,2.3559894653926725,-4.839539501035821,-30.99513993085778,right_4,right_4,3
1627,0.3392524569600075,0.04209083675444125,0.03845604583561417,-0.8507192923764704,-7.612748702656853,-36.63045375841175,right_4,right_4,3
1727,0.6552532103636488,0.11796931836813684,-0.007981061881780627,-2.4765812790103494,-8.018232274244768,-47.25890566171726,right_4,right_4,3
1843,0.7836232482020183,0.23248487224668263,-0.022521628409624062,-8.460405572997242,-13.558870288392251,-60.709644664038095,right_4,right_4,3
1943,0.42725411984194067,0.1926811819683015,-0.14650444952666752,-9.47977668610029,-13.602083102346265,-71.1175299514953,right_4,right_4,3
2043,0.06769713330641387,0.15339736545860766,-0.05293161352932446,-9.72514960986307,-17.15908750320962,-72.53543829111166,right_4,right_4,3
2143,-0.2443736967697739,0.16111524635955693,-0.2046979291069507,-5.797807571069205,-12.045422031062017,-66.02444093648656,right_4,right_4,3
2243,-0.3947532633902132,0.11078092662096026,-0.13753507803380488,-3.4837554458360693,-10.357935473726663,-51.13628811107233,right_4,right_4,3
2343,-0.48911662871073924,-0.053180495643429415,0.1019175289466977,2.8892890669781934,-4.01268240300363,-42.10836959045814,right_4,right_4,3
2443,-0.37045618870879204,-0.01638970152586695,-0.028555842717488605,3.0024427298845318,-3.822153297823822,-27.24641547816851,right_4,right_4,3
9,0.5101194622327884,-0.16959176847909885,0.10820844578444956,-1.1958759082539454,-6.517347402840831,-43.76034127008442,right_5,right_5,3
109,-0.04989325413368639,-0.2650643468925729,0.017491963679343456,-1.524616950644528,-6.799507933580627,-43.28995325672602,right_5,right_5,3
209,-0.2958661881805956,-0.1619932566900551,0.032509587747454625,-0.8058958984718263,-6.590320247470919,-39.95894154474236,right_5,right_5,3
309,-0.6080155195465684,-0.17434209994032976,0.05945476091384887,-0.7333891715639095,-5.781414711518691,-37.23654015667767,right_5,right_5,3
409,-0.9262828661753236,-0.1697854887753725,0.12083505383670327,1.0237015811028827,-6.28585493891974,-32.91925681250698,right_5,right_5,3
509,-0.9031203752723707,-0.1630130428048968,-0.06329121188461782,0.08913243187610309,-7.219904652260139,-26.41093313543245,right_5,right_5,3
609,-0.40197077163401984,-0.047611909037381425,0.197015441006422,2.823488059714836,-3.9985801434408166,-24.55636807010149,right_5,right_5,3
709,0.030924210945628583,-0.02283145423725248,0.025338088682889913,0.8301584379510041,-4.6806358330143905,-25.177568652472274,right_5,right_5,3
809,0.39068650348838413,0.0230859258419275,0.006471241840720138,-1.1624121363526279,-5.66655904017638,-29.079935080037615,right_5,right_5,3
909,0.7048856946692987,0.13244082363471385,-0.06551075840413571,-2.721945131428137,-6.703332237312833,-37.13522386260537,right_5,right_5,3
1009,0.7354558095606788,0.20229948966309425,-0.14441992756366728,-4.489870613175321,-6.65743746420385,-47.25064830452017,right_5,right_5,3
1109,0.45199317587923254,0.19788588177844876,-0.24233728095829482,-7.586180035181785,-9.78604642390848,-54.62905987618833,right_5,right_5,3
1209,-0.006042502341158685,0.09160127288952466,-0.20474761346757409,-6.820287957037171,-12.100776360039376,-59.66007271692543,right_5,right_5,3
1309,-0.3625437911004945,0.05183227398529646,-0.20774001482963556,-4.626206525094065,-11.993837966506508,-59.473122243115164,right_5,right_5,3
1409,-0.5749947199141793,-0.03876017257481813,-0.14624737679958338,-2.692727673904256,-11.347890071980206,-52.99321625110139,right_5,right_5,3
1509,-0.6107236788734607,-0.20786074782595038,-0.029658056160807588,0.0483830110236191,-11.084232134167749,-41.76197283278558,right_5,right_5,3
1609,-0.3046095944706909,-0.2102533128248155,0.02050456027269365,2.5330495051196293,-11.749471898004753,-28.78439108710387,right_5,right_5,3
1709,0.19241204251745714,-0.10326552410259841,0.02081213569104674,2.5467285811025073,-7.814846252201692,-20.483522511418848,right_5,right_5,3
1809,0.5089830627832003,-0.09155927499175068,0.01672176841139796,1.4881561948997242,-4.239498353793891,-14.506755915934349,right_5,right_5,3
1909,0.7883365842986478,0.022148644991815108,0.018662731798291216,-0.9442684020463389,-4.042057563192145,-13.207216803691043,right_5,right_5,3
2009,0.9298729996217787,0.045201749929636735,0.03157002726197243,-2.2591761656297726,-0.9112252061579454,-18.66965990938982,right_5,right_5,3
2109,0.7511149208298884,0.056919952513128515,0.008211831123828905,-5.30846434557839,-0.8469527845586665,-24.39510252266507,right_5,right_5,3
2209,0.36699457823058584,-0.0977003496430814,0.05458803166031837,-5.824764833619364,-1.7534136349497516,-24.39522136795663,right_5,right_5,3
2309,0.24045458253070243,-0.10916180098652838,0.02370265488773584,-6.666837085162257,-4.375371691151096,-26.85306374550261,right_5,right_5,3
2409,-0.07235329463795448,-0.20165391446202988,-0.02334794752101101,-7.132793728705388,-4.410779213938933,-28.431187775561735,right_5,right_5,3
9,0.4874115783585235,0.04084517189736167,0.014505884895722096,1.5720273391729471,-4.331083908586037,-14.24390075302234,right_6,right_6,3
109,0.5541688826647121,0.0758057670906186,-0.007822218058258255,1.2692652725827898,-6.84829006510757,-21.86114571229157,right_6,right_6,3
209,0.4724263733357191,0.09487243274077772,-0.1271044018167257,-1.4559585444140668,-6.718957778470949,-30.411277943622707,right_6,right_6,3
309,0.3443815634767711,0.03412964861690999,-0.010843114862441994,-3.1364509666949876,-9.702087561507886,-41.45895507610727,right_6,right_6,3
409,-0.02178355992604044,0.01333396721705794,-0.10590437739968299,-4.7308924609768805,-12.409706072331147,-49.72690914093674,right_6,right_6,3
509,-0.4380897528241946,-0.045012277159094775,-0.03479495143175124,-3.320065704180654,-11.64621147596257,-53.50917932779737,right_6,right_6,3
609,-0.6453293803836404,-0.10771677519693965,0.03230371913790701,-2.5687451836278563,-9.250127242005021,-50.462230573016846,right_6,right_6,3
709,-0.6924794002237914,-0.2390642214109003,0.10983271521151061,-1.7810000006111515,-10.912226199638848,-42.62713274589304,right_6,right_6,3
809,-0.4303484545150398,-0.15816460908651347,0.26160744790434837,1.4575043122727753,-10.241957709025424,-33.73677171653064,right_6,right_6,3
909,0.09973813908100126,-0.06513201744571326,0.10675789626300336,2.206887033452846,-7.122954412540466,-27.94986764600904,right_6,right_6,3
1009,0.47670732397750015,-0.0412108390495181,0.10997007785558702,-0.9312446613699816,-8.01415066525456,-28.03862663729227,right_6,right_6,3
1109,0.6493548730400577,0.0016350830820202583,0.03559749998629095,-1.5952657273599835,-9.835624744717279,-33.271693549151266,right_6,right_6,3
1209,0.6815692845397441,0.2450289750342071,-0.18560861323356626,-4.36333000361134,-11.619807442726927,-42.822633250506314,right_6,right_6,3
1309,0.32002063464991737,0.20298098373427984,-0.3417479708766937,-5.88120269740335,-9.854586459758973,-54.32037255023472,right_6,right_6,3
1410,-0.1214032529526204,0.18396166435718536,-0.2216563119792938,-7.56879531476991,-14.983045411949485,-59.99843345821868,right_6,right_6,3
1526,-0.35973704850364474,0.2109858648830652,-0.27221464973211285,-5.070286844679318,-12.38477865662495,-58.34668676217774,right_6,right_6,3
1626,-0.472734511356391,0.10219617053151131,-0.25862860745012756,-4.593926079909062,-12.593987009392983,-50.74089136285069,right_6,right_6,3
1726,-0.4850063438476995,0.007896715373098839,-0.0784518392330408,-0.8083380005930529,-10.956518140793042,-37.90060512797742,right_6,right_6,3
1826,-0.07347189539600166,-0.013459610197246081,0.07281038466691969,-1.2625069791579198,-8.35736162526307,-27.206999367160257,right_6,right_6,3
1926,0.3934135611386224,0.010721329726725792,-0.09387737190186969,-0.24332356819100037,-1.0185883734241639,-21.63722291223985,right_6,right_6,3
2026,0.6452047018645704,-0.08082613792285323,-0.04864870473921292,-3.3880552748088113,-4.46534664820566,-19.658248341743317,right_6,right_6,3
2126,0.780604872148484,-0.07354094935074448,-0.033199089768528894,-4.780924909324204,-0.3084866891467296,-23.411199600082206,right_6,right_6,3
2226,0.8535778561920673,-0.0570688010123372,0.10838882923960688,-5.484542865777273,2.5612335550220884,-29.22551953766806,right_6,right_6,3
2326,0.8373175422397442,-0.04059555669538679,-0.13227993398457757,-6.464953875491311,0.8369306665626075,-30.85314439612672,right_6,right_6,3
2426,0.6588362735307465,-0.16368590543617803,0.3385174742648999,-6.944919984074079,-2.646030296649552,-33.255162556139574,right_6,right_6,3
9,0.762131569281593,0.12591790031691386,0.13834327696661153,-1.161331644003962,-6.76260266948038,-24.452260505388377,right_7,right_7,3
109,0.5600166679779999,0.27832155907899137,-0.26956542117148635,-4.0847978247721395,-3.154168285302931,-31.80019452077859,right_7,right_7,3
209,0.15542827215127647,0.08875205016434189,-0.04269733666718005,2.761867765885719,-1.465746514987642,-34.56205766828249,right_7,right_7,3
309,-0.2687116684994101,-0.0023167525097727904,-0.28152292701661585,-4.750517710220144,-1.6172790855454764,-41.10628969888053,right_7,right_7,3
409,-0.5798026645319163,-0.09681754623308776,-0.06200935538053513,-4.331762406060105,0.41182540223227215,-45.97207992208555,right_7,right_7,3
509,-0.7835328299722074,-0.2693939516751468,-0.23550503839850423,-3.8618503003616937,-1.3079583449237233,-41.38968193150718,right_7,right_7,3
609,-0.5161180986416338,-0.30622730629280204,0.12657564331531526,-2.8351835633853795,-10.1149714296181,-39.26378623535962,right_7,right_7,3
709,0.05255898082464934,-0.1452657015119493,-0.017265490673184385,-4.540388101003253,-8.202006795468332,-37.301130694337544,right_7,right_7,3
826,0.567336288542673,-0.02643994167104366,0.029215339281558995,-0.2788271476288212,-13.748883504403704,-35.73178203440581,right_7,right_7,3
926,0.703169790476244,0.07382458859771486,-0.02944961565494537,-0.9025385075385002,-17.398196801994043,-36.69483119416952,right_7,right_7,3
1026,0.7895581638094875,0.31483658307552337,0.10025310286581515,-0.2729940380115834,-12.626756677549457,-46.94622130906136,right_7,right_7,3
1126,0.3402851409156713,0.14949123947858808,0.030856326034665087,-2.014134079154916,-6.586113811437544,-52.472657140112915,right_7,right_7,3
1226,-0.18085737637228333,0.12784084094554188,-0.1406022981977463,-8.730848364599098,-11.357722385422532,-54.572150057004855,right_7,right_7,3
1326,-0.517678309949478,0.13400935889959334,-0.049393970148563414,-5.411327378676922,-8.542034615183264,-56.474558548415004,right_7,right_7,3
1426,-0.5514342919886206,0.007515402518361825,-0.1944109283703566,-2.835908502588411,-7.602663842969966,-52.292657749820975,right_7,right_7,3
1526,-0.6023765163191221,-0.13036673538744448,-0.2982486701768637,-4.154699356781045,-7.001350295518686,-40.824681853174546,right_7,right_7,3
1626,-0.1899234771047346,-0.007650923918485641,-0.12136427995562556,-5.201238358392781,-11.049082273151573,-33.63908720479477,right_7,right_7,3
1726,0.257494068728555,-0.13531819108888504,0.0923143603688478,0.495287112238654,-4.628014091969227,-26.58315959969418,right_7,right_7,3
1826,0.5890364335417934,-0.09109706430748103,0.026001871740817983,-0.5732529105293875,-3.920539682644722,-20.088905429290957,right_7,right_7,3
1926,0.729705345315393,0.01399807176202536,0.1944911247736215,-2.1203761349019006,-2.3279347942141344,-21.37524178586863,right_7,right_7,3
2026,0.9285166896419972,0.05369429769098758,0.12582336364328855,0.07588545073559168,-1.7957874135250833,-27.028858642096214,right_7,right_7,3
2126,0.6907277744367532,-0.04690238714158534,0.12320306891620152,2.7130634949409105,1.7886456610072088,-25.70680517729179,right_7,right_7,3
2226,0.3598183883778564,0.09055424805462359,-0.03984229794919496,-0.42208543492703043,0.8568336883936347,-22.51010392731719,right_7,right_7,3
2326,0.16827096972630823,0.008459858374670129,0.08127835328280919,0.3701196535103669,4.336400592758345,-24.086610134579253,right_7,right_7,3
2426,0.0024706948736992937,-0.02190388619254033,-0.12954057214856154,-0.9426363639180653,5.875468742922951,-19.467659170030103,right_7,right_7,3
10,0.5401266728023687,0.0938047547991077,-0.17335224134624005,-4.146525100218859,-8.767844361714905,-22.18698728601863,right_8,right_8,3
110,0.3238834694774821,0.1630570573031902,-0.3704256961502135,-7.402229305749808,-5.8991320667045954,-33.43801155827147,right_8,right_8,3
210,-0.03885568345159296,0.05315805730938909,-0.24453613540291785,-5.699989080903892,-4.253972207664065,-40.454140163342586,right_8,right_8,3
326,-0.27502013560689986,0.07492837050810454,-0.2942369795435667,-5.413446295456531,-8.966089855322585,-47.353717566642956,right_8,right_8,3
427,-0.5701771233787387,0.055277825942337475,-0.2789924148517847,-3.169415391292344,-10.190325961211771,-52.34999377280866,right_8,right_8,3
527,-0.8341001036034152,-0.08977981500297785,-0.13705389961421488,-2.0948710452744796,-9.476462934447094,-53.94077829843155,right_8,right_8,3
627,-0.6826611787362025,-0.10858467329874635,-0.15355331589877602,-1.247479698538075,-17.42137026781006,-45.02553796350792,right_8,right_8,3
727,-0.151821662494056,-0.019333733701556954,-0.009569558569192838,-0.20671794840276955,-15.276254931602278,-40.11082207074973,right_8,right_8,3
827,0.36414660857420406,0.020765257035493832,-0.10273299543499945,-1.2726289886705908,-9.956327052653036,-39.26560938360383,right_8,right_8,3
927,0.6804652907401695,0.06052814768597481,-0.01851391252517698,-3.7010683409906804,-8.428959296681139,-40.15842712322688,right_8,right_8,3
1027,0.8500395113850384,0.17100281406283374,-0.09754512985527512,-3.763873432516957,-5.463407229588809,-44.89606284854442,right_8,right_8,3
1127,0.6675431045813485,0.16387036106050007,0.12280898425817488,-4.194867419145412,-1.950502969630017,-55.43251961693793,right_8,right_8,3
1227,0.14618812819954002,0.11175523693278429,-0.08959995761752129,-5.8509299836568305,-4.548673570031662,-60.18513872823773,right_8,right_8,3
1343,-0.2704683540540561,0.10758937865108247,0.056505029649734514,-5.227972335122063,-8.205512199294791,-60.231023939081865,right_8,right_8,3
1443,-0.5407758257644997,0.07449363235265014,-0.08461129709780216,-3.0384812598767095,-7.268290531429601,-57.741640601722416,right_8,right_8,3
1543,-0.6442259930255264,-0.06512979626253249,-0.05060743759155271,-2.9992159137328653,-8.104368566268208,-48.14706179723178,right_8,right_8,3
1643,-0.4547627648034693,-0.11418415919318795,0.007948913177847895,-0.604366193779111,-5.859210424758876,-32.20375949222865,right_8,right_8,3
1743,-0.06878511851273482,-0.06789543235749007,0.14502116677939894,0.34284076909157835,-4.993163845041418,-19.968821824436212,right_8,right_8,3
1843,0.28625962937578553,-0.11904422489717606,0.015639467680454232,1.3751235864242535,1.1833704157403175,-10.899912307716326,right_8,right_8,3
1943,0.5811331386441736,-0.12137442141041162,-0.06345967109322546,-0.8792489071622489,0.3314812040064957,-6.409219339764936,right_8,right_8,3
2044,0.6862192657700552,-0.0831110339896381,0.037483167602419834,0.49391603714013926,0.4698744115919295,-9.58707379263063,right_8,right_8,3
2160,0.679478011348918,-0.017047697817087183,-0.22061329111933708,-0.42228822751235684,0.4950023360389476,-16.08429858305862,right_8,right_8,3
2260,0.5020994078699499,-0.040457594916373456,-0.26473428930103776,-0.6781514680666303,0.5105601409304029,-19.756494807293155,right_8,right_8,3
2360,0.42078094177246084,-0.0590173485707491,-0.10000789593309162,-1.2361533025591482,-3.0419112981685674,-24.52475641783011,right_8,right_8,3
2460,0.22180632952228177,-0.04040220172529413,-0.07911893458167708,0.30012911315313434,-2.624950269584582,-27.70198596530499,right_8,right_8,3
10,0.017950983848298567,-0.09818701282640296,-0.04092744335333507,-2.8045260636393152,2.331326360220405,-0.9326982474659743,wait_3,wait_3,5
111,0.01419790883632375,-0.08730353185646232,-0.059169689588248725,-2.8733459780525683,2.10779172213152,-0.3166515353001716,wait_3,wait_3,5
227,0.0111971670775488,-0.06872896057218311,-0.05387175853669642,-2.8569141624114027,1.8002391707435372,-0.039963364796593216,wait_3,wait_3,5
327,0.06261173806721343,-0.0517078000488877,-0.09533633853852744,-3.6283278081697374,1.099658151183208,0.9689943778648296,wait_3,wait_3,5
427,0.031818997054360774,-0.07454600551396603,-0.09862427416801448,-2.4950184248516165,1.3802653635036102,0.6319360522606688,wait_3,wait_3,5
527,0.03338160307532174,-0.06756915223866695,-0.06721031425058838,-2.6406230849009673,2.092789972011741,0.7299705711708684,wait_3,wait_3,5
627,0.04098049358583984,-0.0744050772863626,-0.04768225624680515,-2.1498196716873084,2.080723055460738,0.48251530949313637,wait_3,wait_3,5
727,0.05541065488850692,-0.08613859434336416,-0.0465223310089111,-2.03955028027359,2.268384989522583,0.45004698074510524,wait_3,wait_3,5
827,0.03292188756886863,-0.08669587751299136,-0.01567792922079562,-1.54550963486978,2.311585722579502,0.4816179933909259,wait_3,wait_3,5
927,0.03302904139103364,-0.07152636543184512,0.0247681798404455,-1.346522361373896,2.373119707897111,0.5370491886768725,wait_3,wait_3,5
1027,0.029585308758374274,-0.06595455664888017,0.01954547675609586,-1.250581319456689,1.5301136734451426,0.4027860737525838,wait_3,wait_3,5
1127,0.03134389035589989,-0.0497662813661992,0.0073422963607310985,-1.3742117561700573,1.5881887655896922,0.31127172546122983,wait_3,wait_3,5
1227,0.026571660025622675,-0.05066515912815924,0.00965478186070916,-1.4481935051179202,1.2406721557140288,0.07744438805279519,wait_3,wait_3,5
1327,0.027778741566967212,-0.047583735082298476,-0.035526539028882996,-1.2828608788515339,1.2620521419200492,-0.059644087982522166,wait_3,wait_3,5
1427,0.025548140277210613,-0.04763485152155158,-0.05253168365240095,-1.2505618614216825,0.686078606961688,-0.052192271556758915,wait_3,wait_3,5
1527,0.025981285610515614,-0.0442459105095267,-0.07240285600543019,-0.7449092754429574,0.4239875679056852,0.02480110523131856,wait_3,wait_3,5
1627,0.029209391771331417,-0.050200727260708775,-0.057872343254089284,-0.44206198000921526,-0.39338915285333315,0.1244989753076146,wait_3,wait_3,5
1727,0.027554891602788095,-0.04487897694215176,-0.06698445499241346,0.08356403744592829,-0.38941436962256915,0.3205795924330911,wait_3,wait_3,5
1827,0.04173191839460278,-0.03992269893512126,-0.04854045128524295,0.3479716792332438,-0.7107968507925952,0.33426954869387393,wait_3,wait_3,5
1927,0.04779287701442832,-0.04323848703265186,-0.06474655448555937,0.38795797318832415,-0.4195193248517288,0.4767079945121859,wait_3,wait_3,5
2027,0.04904003118457266,-0.05220782929942008,-0.05448398676395407,0.056727815986423555,-0.441867415667405,0.4697457799199509,wait_3,wait_3,5
2127,0.04283345720224076,-0.05578706141263242,-0.04678104039728635,0.013580387753499661,0.25378323184055046,0.4959421914130826,wait_3,wait_3,5
2227,0.056078909538891095,-0.05491194446548814,-0.04563689725041383,-0.16576714102343298,0.721507032974297,0.4823992923267813,wait_3,wait_3,5
2327,0.05441998344366432,-0.056203496726416,-0.03665405252799386,-0.176737484710414,0.8774830871503462,0.4918881459714347,wait_3,wait_3,5
2427,0.059992891249557256,-0.053944210024923035,-0.017254306821028353,-0.3018611397369014,0.859849188453075,0.38468673056923564,wait_3,wait_3,5
11,0.6307645610683908,-0.7557191449560224,0.47582030226786926,-0.8421104934874641,1.8084210045468325,9.724542164143323,forward_1,forward_1,1
112,0.5608261394636705,-0.7960348252641036,0.3895420461609959,-0.7715008293878299,-0.27418305655220565,5.081977919399069,forward_1,forward_1,1
228,0.4319318877815827,-0.7316170862610638,0.22385972569465634,1.3949529169174408,-4.323215747662984,0.7376703341356745,forward_1,forward_1,1
328,0.2511365785008296,-0.7022798449394105,-0.11973498364031317,-1.1607731791004308,-5.185628494653246,-8.243985735748781,forward_1,forward_1,1
428,0.11100828371647746,-0.44848196019440884,-0.06982032139241694,-0.02966917848794246,-8.758866120739604,-15.695079911695984,forward_1,forward_1,1
528,-0.19066137388501314,-0.2712266031558811,-0.10860849256575107,3.4112332762973265,-3.887682353279115,-24.16036258127007,forward_1,forward_1,1
628,-0.22194948623958974,-0.21256877938643096,0.11160708985984322,1.539629311569905,-1.1281784384919011,-24.79679687605619,forward_1,forward_1,1
728,-0.2080030131473764,-0.26169325571775437,0.4138308595997094,-1.6852182088233107,1.327665084193478,-20.115393073646995,forward_1,forward_1,1
828,-0.11892159768461248,-0.43661327245041726,0.7260130118697881,1.9829343726678494,4.267365418885838,-13.388698985363101,forward_1,forward_1,1
928,-0.08655553928717039,-0.6660348116037248,0.1464139655381441,-1.0259361628672166,10.249192501526396,-4.787502893759114,forward_1,forward_1,1
1029,0.09597097039383834,-0.4959463651329279,0.3120348527538776,1.1649337568168328,10.559981135178152,10.915410732650686,forward_1,forward_1,1
1129,0.1840653749800939,-0.36238033686056725,0.1137222407698631,2.4907459600988737,5.699887631250375,23.087198861943392,forward_1,forward_1,1
1245,0.27300648144313133,-0.22254972446158527,0.19388485866963864,2.869190605687366,5.450690399193941,27.3164485809207,forward_1,forward_1,1
1345,0.3503033766607567,-0.06611684915155172,0.36672073337852956,1.0482097512600865,4.59339681495358,28.779040060775987,forward_1,forward_1,1
1445,0.3112747185689583,-0.02993842208519578,0.5121310748320818,4.321817052987012,-2.4168030151632323,24.54437489824918,forward_1,forward_1,1
1545,0.08377510930851102,-0.16262451110482218,-0.4179004179000854,-6.989407880509648,-9.796594285043733,9.273320472680949,forward_1,forward_1,1
1645,-0.0615108166608214,-0.08020233616217973,-0.38192496605992315,-2.528590074610529,-11.157666230010225,-7.196092691822773,forward_1,forward_1,1
1745,-0.3046662675211578,0.11750535411819811,-0.8372043897616864,0.03451243361188609,-7.1952250443547685,-18.493803071518187,forward_1,forward_1,1
1845,-0.27366808533038933,0.23790409159034484,-0.5224883350998164,1.4257590444257549,-8.111689923412783,-22.537338666302382,forward_1,forward_1,1
1945,-0.3017542671450227,0.34605846909999843,-0.21993150478720666,-1.9218735913936755,-5.90736307964861,-22.725198793244033,forward_1,forward_1,1
2045,-0.14909604422897096,0.19141195113703607,0.5252649309802055,7.67597499540738,0.1505174763811233,-15.592895329825442,forward_1,forward_1,1
2145,-0.00898224558748304,-0.2903994764333964,0.2921070986819267,1.9831970788188003,10.997603393509278,-4.791695989579267,forward_1,forward_1,1
2245,0.23424809713996947,-0.3721139999502898,0.42955426462352275,1.9210749715249709,9.839620634833405,11.823273287269846,forward_1,forward_1,1
2345,0.1571113097744528,-0.49202404059004046,-0.036110301040112924,1.4124126840328204,11.263543617688555,18.452415156044353,forward_1,forward_1,1
2445,0.2493017034014066,-0.6747216057310502,-0.22407237475812428,3.7759866974154312,16.77119966574764,26.07152931041644,forward_1,forward_1,1
11,-0.438532494058522,-1.1759632033728062,0.4024565702120462,-5.190267473760153,6.856236167560399,-10.197288015721446,forward_2,forward_2,1
111,-0.25226436782120726,-1.2121998342063278,-0.10924684892147779,-2.7568690679292613,15.283052901489318,-8.314873579757357,forward_2,forward_2,1
211,-0.1764249377496354,-0.7867278850734234,-0.4807938041865826,-2.052136195151978,12.134449886338626,0.6680640470588017,forward_2,forward_2,1
311,0.0708296920578368,-0.5698991393810511,-0.16915595870018008,3.189735342811349,9.377168515107334,9.137568798068333,forward_2,forward_2,1
412,0.30135686897853387,-0.3814560626000165,-0.09396341352403163,2.815565627247003,4.649269950159253,17.788876621574868,forward_2,forward_2,1
512,0.38967456823317337,-0.29569322815343735,0.08317863394618037,0.9284517436575104,3.73245160881169,21.989290477159493,forward_2,forward_2,1
612,0.4185490289617143,-0.20954314795494078,0.39673710145771507,-1.435945876702518,-6.902869586496829,20.324617135850122,forward_2,forward_2,1
712,0.22005691395863894,-0.7035210187199711,0.31914719820320603,-5.5153635821427685,-17.22576201696263,4.52508638551699,forward_2,forward_2,1
812,0.0335647082105279,-0.5613845697575062,-0.5802099886107445,-5.640984079848185,-15.841519509010515,-11.836581227848697,forward_2,forward_2,1
912,-0.4014509051718562,-0.48278133935503653,-0.4566375018602608,-2.5498641501957318,-19.979987134672434,-27.39089179452436,forward_2,forward_2,1
1012,-0.3351404039182514,-0.1459636060351878,-0.4478280555564164,2.011271119986939,-21.14740255534683,-34.4493240299936,forward_2,forward_2,1
1112,-0.41381386462576686,0.009078691699281383,-0.1868328358793258,1.6418323349512018,-18.638692265249915,-37.650325652447,forward_2,forward_2,1
1212,-0.3023565877262503,0.2586030492305011,0.20753543216824535,4.545616482746849,-5.45869052106152,-31.685109931377376,forward_2,forward_2,1
1312,-0.1786794131053239,-0.12039350600123404,0.5452832859450579,5.428667393366244,6.464808962089092,-15.964116794234553,forward_2,forward_2,1
1412,0.25688847117148333,0.011993103228211389,-0.003412204983234357,6.9953490351818175,17.436298920231486,4.65768938561091,forward_2,forward_2,1
1512,0.30993231290362766,-0.17089114115580917,-0.3322465675598382,7.901054317240312,20.37051249993055,19.146670075739756,forward_2,forward_2,1
1612,0.27972873342296106,0.09255021495133628,-0.09069967710077753,12.042541228024836,16.6552067750233,30.89386393490158,forward_2,forward_2,1
1712,0.19827604648655278,0.15598489773377766,0.31964637989699846,10.445078058054131,11.761270708286489,31.80668798162252,forward_2,forward_2,1
1812,0.22848823670530685,0.47267649025231584,0.20429799923002726,2.9518182215300444,-1.6730633749310868,19.352002637663265,forward_2,forward_2,1
1912,0.14818306852968405,-0.053689124672263985,0.521727989025712,-1.0197212883640567,-3.5463703085898337,-7.547353227203294,forward_2,forward_2,1
2012,-0.09515817261328921,0.002085164937078843,0.1765795036035776,-5.244924781932711,-9.066099064631157,-26.14801695616386,forward_2,forward_2,1
2112,-0.34824733552683146,-0.2205292660976947,-0.1634001716524362,-4.981175148830646,-18.752392283258892,-41.946429604529854,forward_2,forward_2,1
2212,-0.1842244142531231,0.048987961243987056,-0.37873850343048565,0.40283672387414915,-10.311464702227237,-47.957576981729986,forward_2,forward_2,1
2312,-0.3657923189948313,0.008524228847771861,-0.18250220087692137,4.572810822230318,-9.680290933762496,-51.814535628674165,forward_2,forward_2,1
2412,-0.5747345090351998,0.6113570948014656,-0.3345682495375473,8.346051223310452,-14.281642955419755,-44.71496948962042,forward_2,forward_2,1
13,0.9335918350463112,-0.915061419519782,0.4343860784361759,-8.39317294741168,2.168072512700082,11.89413581688981,forward_3,forward_3,1
113,0.751131625369517,-0.887210924237594,0.26723595531061284,-7.979834764999955,-10.477442952124917,5.780984815143464,forward_3,forward_3,1
213,0.397296817699708,-0.7696754818551242,-0.12404594948112968,-7.555054692379308,-9.639888657274577,-6.137621136287609,forward_3,forward_3,1
314,0.14226132475767284,-0.5195079748886824,0.102478260795474,-4.760284034963743,-16.246071613550367,-16.72285228554419,forward_3,forward_3,1
414,-0.2720105127686635,-0.3396895185899734,0.05409446137666703,-0.9203235090522487,-15.181440038468818,-27.461713513764032,forward_3,forward_3,1
514,-0.4628354870240763,-0.3547042785008251,0.3272631677371264,-1.0814954828970393,-17.105228046509488,-33.094684586432685,forward_3,forward_3,1
614,-0.527282116021514,-0.3416185577303171,0.4665623328340053,0.11381534815435405,-4.880984918164728,-33.0353046293359,forward_3,forward_3,1
730,-0.15223141964524983,-0.5172035557907819,0.7310165192455054,5.732840882085136,10.263258080838932,-18.00408888137807,forward_3,forward_3,1
830,0.20905562747284773,-0.6173285606844723,-0.5421307255852224,-0.8910753797101251,17.511889569597134,1.9457687520728726,forward_3,forward_3,1
930,0.4637587466553598,-0.5632294231326878,-0.25843419546961793,6.395230237226762,15.273247812754136,23.07934734604905,forward_3,forward_3,1
1030,0.5605541322023049,-0.23333336422175172,-0.4046938472288847,6.3991505950556204,15.436420861271012,39.910560412020764,forward_3,forward_3,1
1130,0.6127072539061121,-0.03572799449816346,-0.11336837121784696,4.167474414538587,12.094805878242456,48.479208773927624,forward_3,forward_3,1
1230,0.4837183389039896,0.09359998703911901,0.05135235228776928,-3.4774996328865724,-1.8815199586592524,44.67766200030456,forward_3,forward_3,1
1330,0.11726934975197537,-0.08428630292713642,0.9082753541892767,-0.621956342802445,-5.464979901989546,28.366499537737617,forward_3,forward_3,1
1430,-0.15502502876589075,-0.0005835282024741151,-0.6416615932041405,-22.518952693519033,-7.524993685148589,8.59273032825985,forward_3,forward_3,1
1530,-0.300823047056254,-0.09586138532593848,-0.1639134987759589,-13.982468375432692,-11.194453394092161,-13.784394170162784,forward_3,forward_3,1
1630,-0.40591463580854237,0.05561977124780415,-0.637423341886401,-6.766379835239201,-0.16921795803140754,-26.41705716841965,forward_3,forward_3,1
1730,-0.29360743485532703,0.20289982286989683,-0.26735212903618805,-3.632869419728378,0.6460992685937812,-31.7337825424218,forward_3,forward_3,1
1830,-0.32658377063822003,0.3681265377493202,0.0863203221988679,-4.448404251911655,3.7652990450751673,-30.619971812391505,forward_3,forward_3,1
1930,-0.16392894476689396,0.1592491017745435,0.7073042197465896,10.596805699881875,14.373224010113304,-21.857716103554573,forward_3,forward_3,1
2030,0.13124832591451704,0.06864493555054067,-0.529900423374176,0.3698094348560005,19.622659769139013,-2.3825675457221878,forward_3,forward_3,1
2130,0.31232848732516166,-0.0900746186180413,0.06597977876842016,2.9819367357519226,15.54182732875041,13.097478374107931,forward_3,forward_3,1
2230,0.18786955486265938,0.055710839758217334,-0.6593687486171722,1.0952331277520506,9.872273165245614,28.51347658556246,forward_3,forward_3,1
2330,0.34627239771841556,0.1372423421649262,-1.1297000493697822,5.858329236974453,10.72129153774751,38.06348311232216,forward_3,forward_3,1
2430,0.5370628221635706,0.3089813883384068,-0.7198217560142278,3.3973921576337793,1.0094802592477095,49.16506768358579,forward_3,forward_3,1
13,-0.06591467033643279,-0.835796841567258,-0.9589030941744645,-10.094858230059705,-6.427945527116752,0.4766370672665244,forward_4,forward_4,1
114,-0.09120864040306773,-0.5211781658167018,-0.08026406167373046,-8.8906874483717,-8.717529559750595,-3.6349615760402587,forward_4,forward_4,1
230,-0.358842832303755,-0.372459364708811,0.035263971796035874,-6.903096658270218,-7.200560702757018,-10.954620586175565,forward_4,forward_4,1
347,-0.49264707516573364,-0.18591732846960424,0.0978071125662328,-7.3283491878823614,-8.08471545732365,-19.2655826446613,forward_4,forward_4,1
447,-0.5749149363294987,-0.11714593160822986,0.23922446808695802,-8.282811092312073,2.537408958734755,-25.502250573914747,forward_4,forward_4,1
563,-0.27710671800956127,-0.27187434108793734,0.7798713264030218,-0.45544162423414036,13.683186902985113,-22.184943604484204,forward_4,forward_4,1
663,-0.0011486147393285685,-0.4172685205112397,-0.5973454816156625,-4.960220918197671,21.941707964306598,-8.944724351252036,forward_4,forward_4,1
763,0.4548770534459502,-0.4705832296870648,-0.19095488424539547,1.3491696573188279,26.354449178543735,10.710456381780297,forward_4,forward_4,1
863,0.47200121403273193,-0.17629884541824456,-0.700643125196099,3.8118220675217467,17.05406711217306,28.65139555390391,forward_4,forward_4,1
963,0.42299740859227253,-0.0752111037461459,-0.2778980729699132,5.540264573554613,10.96038577809924,35.90801460738699,forward_4,forward_4,1
1063,0.34027478574506936,0.030247020416855862,-0.00373626391887637,-3.2468202389531458,-2.818652061666887,32.51193916437219,forward_4,forward_4,1
1163,0.06450597258228807,0.0761210581979156,0.5952816517275573,2.215399156705976,-8.725347746456222,13.474016970031164,forward_4,forward_4,1
1263,-0.2530741516607627,0.24203847336828713,-0.6919218247932195,-6.220123183371262,-12.234060831585564,-8.923102907186687,forward_4,forward_4,1
1363,-0.6385194081078469,0.09229404823318124,-0.15340180782496918,-3.7388488600378578,-5.976197117790276,-33.012794204133556,forward_4,forward_4,1
1463,-0.543662519996073,0.20673262057885525,-0.2536644968497752,-3.9912258226293686,-2.9573610801240684,-43.82138654113736,forward_4,forward_4,1
1581,-0.5881863012521713,0.2352951073618233,-0.22369266933858384,-1.3491776827911006,-4.087798123436275,-45.06692754384037,forward_4,forward_4,1
1696,-0.5964045548102631,0.12402359151884912,0.043251229609847175,0.3837326847656245,-0.20089900075589,-39.325716072828314,forward_4,forward_4,1
1796,-0.3533705529855563,-0.16409215789154172,0.15337328315675275,-1.020255046303351,3.0471494769647545,-22.995601884371336,forward_4,forward_4,1
1896,0.17667518253039577,-0.08159446272075174,0.054488546034693865,-0.06109363021521119,9.264202810469216,2.412899903562027,forward_4,forward_4,1
1996,0.3161133030935005,-0.1489736745713651,-0.41052445307850827,4.6709136563724325,12.941670916214628,20.907406100366586,forward_4,forward_4,1
2096,0.48275357456527657,0.06648699763819574,-0.33002912531912304,7.057782129526297,9.417765014427603,35.51760967090374,forward_4,forward_4,1
2196,0.5148591627021507,0.2325162026199698,-0.021328853041529473,4.291881913336095,5.475634420797556,40.20010860876898,forward_4,forward_4,1
2296,0.524069421145646,0.45443259761407967,0.8123584392838181,9.515685135673337,1.937618586157071,43.32323111230109,forward_4,forward_4,1
2397,0.5270408229499436,0.39163594970032567,0.8236435598572097,6.6366814442376345,-1.98639460341962,37.11380948355096,forward_4,forward_4,1
12,-0.4754600906533499,-0.48886488243937487,-1.0138195102324088,-7.682959703377805,-11.919432418550207,-12.931696193328108,forward_5,forward_5,1
113,-0.6511803458613343,-0.3315604338461533,-0.46972705124914627,-4.032326027056588,-6.9585564923259104,-21.557730780113033,forward_5,forward_5,1
229,-0.5733764016506075,-0.2452132163338363,-0.09436369411408889,-4.2503975641289164,-6.741374427310417,-24.237872250990296,forward_5,forward_5,1
329,-0.5318512213418632,-0.05752309142500165,0.18968074343025698,-6.198482732170115,-9.408513181687363,-31.601627602737437,forward_5,forward_5,1
429,-0.5036396376623212,-0.021696400405764614,0.42344051637053504,2.511058259671574,1.11252784974944,-31.196463854757404,forward_5,forward_5,1
529,-0.17683248467743393,-0.27998621896862985,-0.00762730923414221,-0.19348798937433181,7.765027257938101,-19.11788356046382,forward_5,forward_5,1
629,0.10866417923552918,-0.14507798230707647,-0.2669004105198382,3.5245092636228312,7.18016558714063,1.5062797176642122,forward_5,forward_5,1
729,0.30826434681205084,-0.14346625087454917,-0.5364225186192988,6.6740544606808445,6.978724781628832,18.534088167573156,forward_5,forward_5,1
829,0.4876929197038152,-0.08562786834225058,-0.5120445655924082,9.016543182061,4.9543523342854305,28.1400324068427,forward_5,forward_5,1
947,0.5708616313909181,-0.10386351922184227,-0.2067291426736116,4.397142641654076,1.2061940331305507,30.57170436496699,forward_5,forward_5,1
1062,0.315071973693762,-0.07552858681052921,0.21213047564744958,6.458797164317803,-5.328558036408967,22.544411161769283,forward_5,forward_5,1
1162,0.13667621810171754,-0.13943667387142775,-0.6451281587231158,-5.162391998997792,-2.8316122282231078,3.150145704088189,forward_5,forward_5,1
1262,-0.09537756925132124,-0.12475588054224848,-0.2959695024245975,-9.767399111012018,-11.703068574623378,-16.17675564686582,forward_5,forward_5,1
1362,-0.3752045279245823,0.10838801090896126,-0.6288996098822353,-7.06281772918057,-1.8158752453340128,-26.85576939154018,forward_5,forward_5,1
1462,-0.30696595199175175,0.23087425140574572,-0.43956911196827864,-7.430585252303769,-1.9286119145193514,-31.24815062828256,forward_5,forward_5,1
1562,-0.24339151002548634,0.31145848494455214,-0.2191688206255434,-8.94511088659821,-1.3925725212864979,-30.918804029146422,forward_5,forward_5,1
1662,-0.13661936604142186,0.09104688310325142,0.5839808562254907,-0.8557182864856617,0.5885976135187356,-21.10829869782013,forward_5,forward_5,1
1762,0.05094124342970552,0.017295768907070158,-0.7643065606200694,-3.172743507687139,15.838620179085206,-5.382057926337984,forward_5,forward_5,1
1862,0.31373399212848396,-0.10699982987314463,-0.237459796501994,1.058846917118735,15.807547599494068,11.052105997897135,forward_5,forward_5,1
1962,0.33079276663538065,-0.011528437552005055,-0.7480092720049619,5.850179796766251,16.13011233304857,27.247799672922053,forward_5,forward_5,1
2062,0.4706386058295891,0.13648846236422657,-0.4208994828116893,6.818063964734092,15.377008674219065,38.5383520143673,forward_5,forward_5,1
2162,0.5850896796371787,0.28367244781374923,-0.11818389635384077,3.2245983065339168,10.676660317618465,37.75867021117525,forward_5,forward_5,1
2262,0.48179625922739505,0.3095067079026997,0.5958498070043327,7.393896040071439,-0.6617456951897196,29.25998006184225,forward_5,forward_5,1
2362,0.4735444815122988,0.28766711424700914,0.1615364236071707,0.936512533479771,-8.863054210537122,24.079616981364502,forward_5,forward_5,1
2462,0.3955368417739247,0.2540771985299885,0.48880448184410746,-4.418193664427459,-13.193281339482196,12.499276063200945,forward_5,forward_5,1
15,0.24583322357324255,-1.1530338709451258,0.15965260697702569,-1.3494353516775417,-10.329065914734068,-7.584141744872199,forward_6,forward_6,1
115,0.03969769454021005,-0.7596702937345952,-0.7646760661326347,-5.5460982381247215,-7.6686767261698305,-13.761028761356858,forward_6,forward_6,1
215,-0.1362560856869817,-0.5421188744039089,-0.007914309481978332,-4.051952522275766,-13.088567095666921,-18.224105074692723,forward_6,forward_6,1
330,-0.5615158679869772,-0.2858499525963515,-0.18999381335437288,-3.581451184695394,-12.175908211457848,-26.88484837765081,forward_6,forward_6,1
430,-0.6879460968691855,-0.14649236453659834,0.010669044243693415,-4.390660920197781,-8.645409128065008,-33.67577402912893,forward_6,forward_6,1
530,-0.8453267013581097,0.01780902296535669,0.16482979529023173,-3.4724882377151696,-5.179536696957279,-32.27646463613195,forward_6,forward_6,1
630,-0.6973271909680963,-0.061019979017004386,0.3180474787199497,1.9643279982177233,1.076422189136283,-21.149667787585056,forward_6,forward_6,1
730,-0.17577952694535254,0.11108511181235312,-0.6385379082256556,5.248182376624325,8.53084245376587,-6.534997273330717,forward_6,forward_6,1
830,0.38518103063337505,0.09227791542902587,-0.37905204097211354,12.126458127450718,8.671549729442102,10.235924346799461,forward_6,forward_6,1
930,0.5432577714668214,0.19888535575762387,-0.39116041191697115,11.152677459840445,6.702769813923365,25.48119617428873,forward_6,forward_6,1
1030,0.7731151958997919,0.23115786142662165,-0.3236255711132288,8.773186700895936,8.774961952438588,30.607531476591976,forward_6,forward_6,1
1130,0.7750461201232299,0.19219652564346784,0.09754816936910153,7.652576602924254,-0.7325787269302051,24.044953728638014,forward_6,forward_6,1
1230,0.4512849691576883,-0.0019581483304501046,-0.30797523132562626,-1.9416231260674492,-7.378010212677053,9.053333270317676,forward_6,forward_6,1
1330,0.16529344535965468,0.014596183785647093,-0.46177065619111063,-5.647661230092107,-12.163918897595204,-7.01077441978074,forward_6,forward_6,1
1430,-0.19463748174827544,0.07757774519920344,-0.5870600006359815,-1.8203654116943788,-16.310943555004048,-19.705026599821437,forward_6,forward_6,1
1530,-0.29889423076488075,0.20768287781491868,-0.49971828488707537,-0.10139048700216016,-13.453622366678962,-20.936738027592085,forward_6,forward_6,1
1630,-0.31077833527371285,0.2208696039679646,-0.31210569680690764,-3.130463014554831,-12.059099399497605,-16.030112664660493,forward_6,forward_6,1
1730,-0.43692692689642304,0.15754203482180834,0.4412130213308334,6.822675108152092,-3.1420126936865946,-4.892435666275228,forward_6,forward_6,1
1830,-0.3611196108227968,0.15409981463953853,0.0489478630423545,6.471776871618355,-0.2673820984574059,5.793626150603666,forward_6,forward_6,1
1946,0.14118816448777913,0.12983321303263304,-0.23511855252504352,4.027904963000714,-0.6112162118420578,13.102201087065193,forward_6,forward_6,1
2048,0.3350666226427257,0.2517818979735672,-0.4801210194915534,0.69643801890887,-4.398280508481119,20.54130215519311,forward_6,forward_6,1
2148,0.346434682001248,0.4112266976767778,-0.5182641123074293,0.5534179558023048,-1.0986405383742412,17.128831984997948,forward_6,forward_6,1
2263,0.45967023523271083,0.617894085612744,-0.5107980142104627,-2.3880728489479495,-7.237656740799826,9.592088432141892,forward_6,forward_6,1
2379,0.5831076024418697,0.7377910548817366,-0.27305852398425345,-4.83836769670634,-7.598936779494619,7.739717116850633,forward_6,forward_6,1
2480,0.3993675668656826,0.8538698200049498,0.032057128836711156,-5.623511886768861,-0.2043507222303198,5.302247820446184,forward_6,forward_6,1
13,0.7590663973797733,-0.5764962580107152,0.5093724432577689,0.14161173501795155,4.247541534757035,41.105725639091574,forward_7,forward_7,1
114,0.46116189673594193,-0.5767535937726498,0.3178467831291258,4.1900506230003725,-1.762818890814224,31.513713441821515,forward_7,forward_7,1
214,0.28426464885976166,-0.47956814946219317,-0.2793585593634843,-4.788017761956486,-5.201442452982917,20.256597074830623,forward_7,forward_7,1
314,-0.02917752802181988,-0.31198423315823076,-0.22671651797831052,-11.293611497797125,-6.323720781970691,2.3884438135972474,forward_7,forward_7,1
430,-0.45121804140131916,-0.24613654172383245,-0.18756208538889876,-9.15010718977114,-15.036581928767921,-12.812647618264714,forward_7,forward_7,1
530,-0.5642977830165623,-0.07094042607657611,-0.05369476530849926,-12.67851521074958,-8.782603738836723,-24.51879887070393,forward_7,forward_7,1
630,-0.5381148410073667,-0.10047769078887998,0.19508464830040934,-18.038724386461066,-5.558140928848511,-31.53432052808992,forward_7,forward_7,1
730,-0.3908396043843403,-0.28203805154494943,0.7058543716514111,-7.97506202090702,1.5513920499150893,-30.85334178859373,forward_7,forward_7,1
830,-0.12532550443027168,-0.7612534420467167,0.38190205280184747,-2.0003782275768978,12.637662184465123,-17.697180307439076,forward_7,forward_7,1
930,0.13821832567065953,-0.5925764113568515,-0.2176996833080052,-1.3934348540135533,23.718297199506484,3.10564705899815,forward_7,forward_7,1
1030,0.47580569896265856,-0.5866711620619147,-0.2028185743272303,7.418098791382997,16.013361604376698,24.1309459810432,forward_7,forward_7,1
1130,0.522631860796567,-0.2865972638323158,-0.09720809453368177,9.541854930773042,15.90249414452378,41.11784911103185,forward_7,forward_7,1
1230,0.41042934040727086,-0.14654099675782023,0.34664614740788946,7.504359833076367,13.306666065553719,47.63733263419127,forward_7,forward_7,1
1330,0.2379521210233681,0.1492160904120654,0.44618964069962513,6.765907890511892,0.9225005464728255,39.77757748265425,forward_7,forward_7,1
1430,0.20763425655348228,-0.3067465663135052,0.5201664972496032,-1.2364788571226355,-12.229053972086655,15.732013305859178,forward_7,forward_7,1
1530,-0.1998115489581413,-0.28833986971594394,0.12232733822107315,-5.23873697205414,-14.533521207480149,-9.089165979496126,forward_7,forward_7,1
1630,-0.583109041827023,-0.38077379403732714,0.19330045368433002,-3.0979278993633232,-7.705587365931336,-27.96579189054946,forward_7,forward_7,1
1730,-0.3218754102841764,-0.2733876244211942,0.20514345169126988,-3.195646220535591,-8.329524090067114,-35.82114976629882,forward_7,forward_7,1
1830,-0.4311820338753982,-0.19254775023393333,0.35860756954967976,-4.544019136287737,-8.391564405845632,-37.28045349190843,forward_7,forward_7,1
1930,-0.4318624685006588,-0.046920697289779746,0.5080020122033357,5.908975794033355,4.188201509365149,-29.082904035203768,forward_7,forward_7,1
2030,-0.07585803796060375,-0.19943200062885874,0.1384599085676669,-2.6142012664930556,12.032616568290493,-11.404404636654139,forward_7,forward_7,1
2130,0.39805455534487966,-0.20941464081749314,-0.002774374697208559,6.3126077013372806,13.885480916518123,9.080567582416041,forward_7,forward_7,1
2230,0.3346019569665194,-0.06979489469021556,-0.5908273611193897,9.862520124686341,12.850984616302345,26.677895305321947,forward_7,forward_7,1
2330,0.4944719999977388,-0.04874430329427117,-0.7718933040350676,14.533780242404418,18.251969060863455,38.6328777236946,forward_7,forward_7,1
2430,0.7073165434164306,0.18915995391060914,-0.7965369417448839,13.271918730352624,15.208725733511125,52.46223222238272,forward_7,forward_7,1
14,0.5630373614172761,-0.7105553304970265,0.5346481439709663,-11.900052752849549,12.342230946570927,21.799522607234852,forward_8,forward_8,1
114,0.4379460389844607,-0.9173136554259806,0.34433570773452515,-9.610737623340375,8.618357347436124,16.993128431202468,forward_8,forward_8,1
214,0.3436677307320386,-0.9361727427400648,0.2553556355810165,-7.2885987248846735,4.521603245172376,14.44340501492015,forward_8,forward_8,1
314,0.09330055108807982,-1.0562886300697922,-0.33942812040090564,-10.413692869242416,-7.737530026245369,6.062078176850211,forward_8,forward_8,1
414,-0.13901288088835775,-0.819475227099508,-0.5554543175387383,-8.01517083404838,-12.006138454182784,-5.176543553316505,forward_8,forward_8,1
514,-0.25251650316495444,-0.5571826318621635,-0.393206706148386,-6.982700826843764,-22.566014233692982,-18.550574067106766,forward_8,forward_8,1
614,-0.38951022625062615,-0.13870979167550804,-0.5316661470985412,-6.870923329661307,-17.884870576113805,-27.203446217376644,forward_8,forward_8,1
714,-0.3302603329525888,0.024271570042967806,-0.21911375866353514,-9.044328242194222,-16.85162056130597,-34.45611255500967,forward_8,forward_8,1
814,-0.1878467037100345,0.08534713709168136,0.2532649176859855,-4.928465212967825,-5.963810495025262,-33.34808648294218,forward_8,forward_8,1
914,0.0010409385007247086,-0.225822740169838,0.3931196123868227,-2.4261181979080253,4.908266828143876,-23.02186020512599,forward_8,forward_8,1
1014,0.29942287966843695,-0.19137768354125312,-0.9162731333971023,-2.9270949857913484,14.780882228555589,-2.510566486051336,forward_8,forward_8,1
1114,0.6521214882091805,-0.34242889503903684,-0.35943875967681405,4.127490401759969,7.831466983938389,17.840329119611493,forward_8,forward_8,1
1214,0.5956858705338463,-0.05274174620650709,-0.8465749770796297,9.796630741178427,5.651909394312446,37.94090648842036,forward_8,forward_8,1
1314,0.573870432245247,0.09134276808381081,-0.29171476758956905,10.684588971961746,0.9194304618182713,46.54208243096629,forward_8,forward_8,1
1414,0.46126427026502786,0.24986872860252857,-0.16048481027543532,6.790804933220622,-6.949549201702297,41.440030628285236,forward_8,forward_8,1
1514,0.17851352579303087,0.1872827716039121,0.5454288318955898,8.879184107804587,-6.914286813319542,26.14725039549557,forward_8,forward_8,1
1614,-0.1831604455899447,0.15406053476855158,-0.4533455914819239,-5.915447547682331,-7.823359720148311,3.963991254398908,forward_8,forward_8,1
1714,-0.29420084147773684,-0.02819868035882711,-0.07245464464485632,-7.691483025295257,-14.692272647660449,-17.07465522332218,forward_8,forward_8,1
1814,-0.48207219739846885,0.03071153996258975,-0.5671840352034568,-6.6600935540173385,-10.829696682388127,-30.916287659390143,forward_8,forward_8,1
1914,-0.34858803141675887,0.15113295688405634,-0.2981692921042442,-5.836266829492983,-10.022862998943257,-36.71331283228992,forward_8,forward_8,1
2014,-0.307470072895512,0.15659347269922497,-0.06091957276940344,-4.3878619940532735,-7.934752677680498,-35.30157830066432,forward_8,forward_8,1
2114,-0.20711205565702168,0.17982015141218902,0.5244048654717207,9.532290296713157,-0.4722795773307837,-25.833641277914744,forward_8,forward_8,1
2214,-0.07526977878408507,0.013875702104419508,-0.18557073621511458,4.381630812473473,16.477551334899793,-13.711182140845702,forward_8,forward_8,1
2314,0.13188871987701856,-0.10898326608184719,-0.31513343251720066,3.857579425762367,18.30935214812338,-6.3630778687608665,forward_8,forward_8,1
2414,-0.05216505325688051,-0.26029938533554464,-0.7821206835389137,5.612496285741513,20.217505369348824,1.915011727221388,forward_8,forward_8,1
13,0.23565252057779576,0.24126038705483074,-0.06441723485291,-11.129647328390071,10.278225615090491,7.743732165291637,wait_4,wait_4,5
113,0.3866430276507046,0.37831944507472215,-0.38962607118263837,-10.923062049297151,11.468286648909327,6.1074507286362945,wait_4,wait_4,5
213,0.28746746348906305,0.2178685224558413,-0.3509484623247384,-13.963472979020647,4.126190275251458,5.222977100284956,wait_4,wait_4,5
313,0.2471351462266967,0.143400346031487,-0.20081728828132145,-8.535500642779818,5.017514594012491,4.086949643186629,wait_4,wait_4,5
413,0.1559088149033115,0.11331465365618469,-0.1660658252781629,-5.281412997172412,3.026284615088202,0.8984557192734414,wait_4,wait_4,5
513,0.058714456634037224,0.09101111036360264,-0.23864824640810484,-4.697624904046421,2.3529111631667723,-4.059784358687561,wait_4,wait_4,5
613,-0.06297146379791198,-0.11239204430550336,-0.030266309639215415,-2.587680997311558,-1.2131749987264904,-4.402091071019068,wait_4,wait_4,5
713,-0.007936959705203755,-0.052953796135038124,0.04994096573293212,2.4805774305946526,4.187504221756086,-4.384575669878464,wait_4,wait_4,5
813,0.039896947092618776,-0.11175564609810706,-0.0862631559580564,-0.6054847439774058,0.8407002159490251,-3.1685862917044694,wait_4,wait_4,5
913,0.055851881236936886,-0.14441487144932144,-0.04249170186638828,-0.7234448003305116,0.4986082703782325,-0.8165727541328558,wait_4,wait_4,5
1013,0.057141654359363005,-0.12205126853257411,-0.07610954311668869,-0.9241414567322384,0.723221815998452,1.1024325633518959,wait_4,wait_4,5
1113,0.015033389719454542,-0.07030307802110905,-0.03900163856744763,-0.8619879412403977,1.9806613924337744,1.6246189669101299,wait_4,wait_4,5
1213,-0.019475304446581295,-0.0643629035432636,-0.09815022691547867,-1.0614701793355255,2.016455105500932,1.2637245937796056,wait_4,wait_4,5
1313,-0.04389292550352634,-0.043832507403045826,-0.11538649149417876,0.7906057089297891,2.7108068004391392,0.69146425914701,wait_4,wait_4,5
1413,-0.0358950805369881,-0.03749132168278095,-0.14386638533413404,0.5850942387387088,0.8241064207708673,1.4771820392468142,wait_4,wait_4,5
1513,-0.021630401947868538,-0.02138672070860863,-0.09989128381609913,-0.27825613314203657,-0.10319177864102198,1.430037170764989,wait_4,wait_4,5
1613,0.0029485553704691027,-0.05097606632128358,-0.09072656510770316,-0.14863886486642292,-0.4219481694690545,1.1962949492530004,wait_4,wait_4,5
1713,0.0015523549683205639,-0.04602727019444107,-0.03617781331837174,0.7720592160287773,0.458432478694324,2.139095463605424,wait_4,wait_4,5
1813,0.024654250130937406,-0.004651362163275485,-0.007263269001245467,0.0918225125528834,0.6245960401619248,2.302317369319206,wait_4,wait_4,5
1913,0.06366421082878945,-0.007096417227834463,-0.015560440320968589,1.6323610930560455,2.387437726732503,1.403525220540459,wait_4,wait_4,5
2013,0.0731948484599683,-0.04100599335327742,-0.02250502798795697,2.486231760010366,2.4262439801104594,2.5741618651491343,wait_4,wait_4,5
2113,0.07317482310535381,-0.02727148251131174,-0.02717956644415853,3.102154633865138,2.3859991608272515,3.524228628225308,wait_4,wait_4,5
2213,0.08572290064172813,-0.03954086001068352,-0.07005915703654285,5.069589941268393,-0.24355972198155323,3.6135313879438384,wait_4,wait_4,5
2313,0.08080617376037402,-0.08100826763715593,-0.06895560893490905,6.209983233939851,-0.9683707202286264,4.143400110804068,wait_4,wait_4,5
2413,0.08129165724456926,-0.10873826616729293,-0.07119340227941667,6.909614878549889,-1.890862241602533,5.86342598105136,wait_4,wait_4,5
14,-0.678160201877604,0.922290201729536,-0.2815938100377719,5.653064407760213,-9.798569319619606,-11.750922829398313,backward_1,backward_1,0
114,-0.5810181924145668,0.8072805514976382,-0.18573285336121917,7.621186547602758,-2.8861381619758486,-4.190569183768765,backward_1,backward_1,0
214,-0.3145373370940983,0.7774494184052945,-0.2992475011819601,5.268349790809257,-0.5984566500761922,5.506385383856152,backward_1,backward_1,0
314,-0.032536943371891947,0.6656248864024877,-0.14696937823772432,4.388391931355503,12.533386625557549,14.795214185245758,backward_1,backward_1,0
430,0.38424531337931755,0.3625131694599986,-0.22045780829668046,1.4721789310158662,18.050116330911685,17.154026247657278,backward_1,backward_1,0
530,0.40477620636314154,-0.012083587216734859,-0.18119383630514144,-3.8210916587538293,11.431092362864174,10.19219551205365,backward_1,backward_1,0
630,0.40112615942299357,0.017582067728638663,-0.3154006466990709,-7.762528049032109,-0.7364528529161205,-1.046672104923188,backward_1,backward_1,0
730,0.567462764466554,-0.0021458967614173654,-0.07549474299311634,-3.9192863002433413,-8.00089930318803,-21.094306628418533,backward_1,backward_1,0
830,0.6071288290660084,-0.07156973695605988,-0.10883680681586261,-0.3055355778497809,-16.218571905914068,-34.759021797057535,backward_1,backward_1,0
930,0.43411359381526704,-0.20736574546366926,-0.03980500545263288,-4.045267816135075,-22.7668646547284,-38.893976058787764,backward_1,backward_1,0
1030,0.2430229397479445,-0.08641986627668138,-0.2541260353338718,-5.027611918794614,-15.346244392291586,-29.072418456856013,backward_1,backward_1,0
1130,0.2978816927214712,-0.4435920838740467,0.15070447311282156,-5.683494408846064,-14.20855958979116,-12.107226449182075,backward_1,backward_1,0
1230,0.08600028185121715,-0.5336132479652761,-0.09945476286888125,-1.2498618657493352,1.496736065091683,0.939778534506749,backward_1,backward_1,0
1330,-0.21866920054033398,-0.40769092476606367,-0.10730921730935572,-0.989583932425024,3.9883079231272576,17.32681825158228,backward_1,backward_1,0
1430,-0.1835030630955845,-0.07464402983486647,0.18120353936851025,4.925903059599763,8.74004081738224,32.825573425586896,backward_1,backward_1,0
1530,-0.0766933708866313,0.11521025814443833,0.14745698639810084,10.937192333979901,20.776102671828305,39.51252499096802,backward_1,backward_1,0
1630,-0.023397746350504466,0.41471033123493195,-0.2681224119824171,14.403367683977319,32.40865556237551,36.02291987230598,backward_1,backward_1,0
1730,-0.23170812302704896,0.02677110254764563,0.21450667403340334,0.623693259908378,21.300688179332507,24.911630797514864,backward_1,backward_1,0
1830,-0.371223985001482,-0.07814590047597877,-0.06916039617896086,3.703709180272412,21.97636929604239,9.716248037761204,backward_1,backward_1,0
1930,-0.2950225915763526,-0.18606851505637162,-0.12859247764348988,-2.729218258365826,0.012430432025229265,-9.796416017106393,backward_1,backward_1,0
2030,0.11340175472427161,-0.2583657479563355,0.08613935422182076,-1.1302424576260564,-17.870333969880637,-32.94745080887242,backward_1,backward_1,0
2130,0.23832057074327023,-0.3059104077503084,0.07879366763412947,-4.775599965781216,-22.03747698083925,-46.21574828676359,backward_1,backward_1,0
2230,0.40263921625401816,-0.043855683695971925,-0.5442790773385763,-0.31887335781756965,-21.540744685949587,-41.79892279015751,backward_1,backward_1,0
2330,0.819228060191823,-0.035442484781146005,-0.32253494094535706,-5.804742774397708,-28.341432707965353,-42.7675517875863,backward_1,backward_1,0
2430,0.8964257900531091,-0.05898069417725001,-0.5865178370992342,0.5420970310894925,-5.90953187348443,-41.60257124397365,backward_1,backward_1,0
14,0.030989158634096386,0.6669648054142793,0.06417270986239113,4.590262782652919,-27.721193026433497,-38.55897577056615,backward_2,backward_2,0
114,0.13636123021515084,0.698723584536463,-0.2288853279978037,4.866384278908086,-27.34379448123463,-37.157974198202304,backward_2,backward_2,0
214,0.1548705798163265,0.3339896118348837,-0.2500203535807133,-1.666716080135393,-25.518129739206653,-38.57953054185439,backward_2,backward_2,0
314,0.022087661092411736,0.30082161863088613,-0.26514135034501546,-3.348423827857411,-25.86891374082652,-32.26106870672383,backward_2,backward_2,0
414,0.26284768644988543,0.058770373459309376,-0.09028431584596634,-1.8257195542960694,-19.314032676916153,-21.009178309565986,backward_2,backward_2,0
514,0.13835836250238126,-0.07557923563227054,-0.23366169016718863,1.1130958653562906,-1.0650198713358647,-10.066239481305256,backward_2,backward_2,0
614,-0.146547324207276,-0.11765779742702838,0.11249708288908004,1.05618553390864,5.887748142390166,5.477524590272992,backward_2,backward_2,0
714,-0.1487844027302227,0.21857246216759085,0.20168974565386769,7.626811464516358,22.005264838212952,24.078922564569332,backward_2,backward_2,0
814,-0.06355997870275745,-0.06718176035627725,0.21405530623018737,0.27014149488209116,33.51687403233418,28.377198175298794,backward_2,backward_2,0
914,-0.06766054588938131,0.016461130100786658,-0.11338719282269483,-1.996202698149516,30.58776303083194,21.53270249105053,backward_2,backward_2,0
1014,-0.12869735913680863,-0.2781251597240567,0.28250854782700524,-4.954710919216858,22.8699918027044,9.49054785173272,backward_2,backward_2,0
1114,0.054954596297126276,-0.20461580378144978,-0.14110896177172666,-5.834341676642391,7.336030247868228,-6.155378774355997,backward_2,backward_2,0
1214,0.28243814947191626,-0.14726573083579547,0.12869126184284682,-6.276168129851075,-6.907851152951464,-29.493695304107018,backward_2,backward_2,0
1314,0.5597665839407593,0.11622001970887179,0.008518237498402548,5.522342648092347,-17.39020069953271,-43.48460357354236,backward_2,backward_2,0
1414,0.43345485225863756,-0.15098603730708363,0.10707295356154438,-0.20953656470199178,-19.293935955189134,-42.3343010210787,backward_2,backward_2,0
1514,0.3661661390095948,0.028396014948785277,-0.40173043815255155,-5.990172058358091,-21.2377560542918,-23.69290340994602,backward_2,backward_2,0
1614,0.49410893518574533,-0.3344789735609293,0.15773019241809835,-6.07862398994945,-12.408186782127641,-2.4512432195246476,backward_2,backward_2,0
1714,0.20402903148248788,-0.43161786070287234,-0.3344951063650847,-2.5766794942215414,1.0630253707208552,18.074270953401975,backward_2,backward_2,0
1815,-0.2642541776338965,-0.304715937268734,0.014764204602837472,-4.148816237372476,9.550854494745158,37.482345687547,backward_2,backward_2,0
1930,-0.36706371803698135,0.016993395733535276,0.002876782932281374,2.9094466094053404,26.01121014539052,56.512172400174265,backward_2,backward_2,0
2031,-0.20039711385407485,0.14102631037652488,0.047197219982743135,7.103278841344884,28.098959064268826,60.20732045058626,backward_2,backward_2,0
2131,-0.154272038534442,0.16608377010017628,-0.16205705725431452,6.54657310995257,31.721307116525406,40.7669822933683,backward_2,backward_2,0
2231,-0.2841582969285641,-0.04478469356134538,-0.0009562778115273562,2.643454561165737,22.530104941018465,26.92965287647745,backward_2,backward_2,0
2331,0.010634725045587379,-0.17388952656071638,-0.2857341734230519,0.8205801008240954,19.192002446803613,19.066721943108483,backward_2,backward_2,0
2431,0.0010512260859832044,-0.3873557881630958,-0.18900164589881907,-0.4967023132051211,8.364126571896946,-1.275137692250998,backward_2,backward_2,0
12,-0.17420518055868647,0.7116451228501895,-0.08194314951201276,-6.994143770040186,5.447538323810224,30.084240403771975,backward_3,backward_3,0
112,-0.2703291264198255,0.4935997289415449,-0.3605691957853734,-6.4847544071321925,16.887107620223738,37.91236731136974,backward_3,backward_3,0
212,-0.009665339787341676,0.3193726775221527,-0.3809223941147327,-9.889543874859203,6.1544739450457,39.64494203916179,backward_3,backward_3,0
312,0.12187394651081411,0.2240089249069989,-0.3891228855139017,-3.8582160207373533,20.35268767654631,32.09434105700815,backward_3,backward_3,0
428,0.2746001091367565,0.04706584868803622,-0.11779600762784478,-5.249500026836927,12.390240118573976,19.66786439432105,backward_3,backward_3,0
528,0.35442428886240346,-0.01957908676475286,-0.09846657016217708,-3.99268355575298,-4.007390148319122,1.3390893226322647,backward_3,backward_3,0
628,0.5942063104603625,0.07929194331899284,0.1346275492501259,-3.5762293343201903,-16.022910721100562,-23.032656685147032,backward_3,backward_3,0
728,0.5355488374040462,0.09784837981164454,0.022946692727804186,-2.3623541131377244,-5.41066651518604,-42.49549792511397,backward_3,backward_3,0
828,0.09034084276596088,0.030712621328085644,-0.05082768543958662,-12.404935612082715,-24.86985701904161,-43.17261009452102,backward_3,backward_3,0
928,-0.0011402414632588175,-0.17486606536224486,0.1801621551698446,-9.443065443839847,-21.132424633515903,-33.59266428730821,backward_3,backward_3,0
1028,0.03868734114736323,-0.07535568523555994,-0.2281111872071028,-7.061452075544707,-3.921304151567573,-18.01345085091868,backward_3,backward_3,0
1128,-0.0968427683526277,0.029118074839115105,-0.11353554447829728,-3.0573019982131093,-4.26775610570636,7.116077324516847,backward_3,backward_3,0
1228,-0.23855393380120388,0.20321344808980818,0.18764871153295032,2.143561425482919,3.331491532772857,29.927408559798785,backward_3,backward_3,0
1328,-0.11713074865214523,0.11231035737141963,0.28917104523003095,3.9450026454873557,17.06755588201019,45.31357011439248,backward_3,backward_3,0
1428,0.19369993055678905,0.13795005934938787,-0.28386873026430604,2.1330824211922392,22.335265171830027,37.81591402660912,backward_3,backward_3,0
1528,-0.00933439079992469,-0.2529230892848968,0.19129320551514625,4.323869012568415,21.499147906092375,23.85476694044427,backward_3,backward_3,0
1628,0.12066407387744638,-0.19676269374132146,-0.20800129611432547,4.869075202686343,7.3387534442903135,2.643368586159556,backward_3,backward_3,0
1728,0.4341505136791244,-0.16430483618110414,0.20764076301276688,2.263662319254003,-7.056017763597632,-25.42774038176854,backward_3,backward_3,0
1828,0.6837923601101712,0.02420961072266104,0.06441396153032786,9.10989867721224,-7.948221127704843,-45.97772439041565,backward_3,backward_3,0
1928,0.3877276902154088,-0.10627072649404404,-0.2805525037753581,5.227526433159009,-7.928719571586623,-48.51294922540857,backward_3,backward_3,0
2028,0.3086197251611948,0.062417293207347437,-0.46074435265719876,-7.468263905482781,-24.667648244135002,-39.096396569558635,backward_3,backward_3,0
2128,0.09412745228584854,-0.3949983241924643,0.4075225824618339,-9.34929356328133,-12.345937804069976,-26.128558430237412,backward_3,backward_3,0
2228,-0.20554549315351994,-0.4408150788283347,-0.4023792574501037,-3.555170495071207,7.409831124869138,-4.53361626726196,backward_3,backward_3,0
2328,-0.34443868405180983,-0.5647533959100022,-0.26448943308144807,-6.354938631147742,4.338532318810697,9.064490469704253,backward_3,backward_3,0
2428,-0.31462584832124413,-0.2790932253936926,0.49102585986554614,0.5488449733982511,1.2721614373201788,22.795717081329826,backward_3,backward_3,0
2,0.46888577811941495,1.046581767308712,-0.2920853934357564,6.320355391241457,-3.4549111727729653,-7.062297781030002,backward_4,backward_4,0
115,0.4919328460420947,1.023602312128991,-0.013345511524379267,8.526711683421892,-3.3231543690841865,-15.249283965985098,backward_4,backward_4,0
215,0.58956268225234,0.946990284769833,-0.3358508464360237,7.778709578260833,-9.968935752615609,-18.834703917475093,backward_4,backward_4,0
319,0.2925932090049609,0.5978241758172215,-0.6480760195171833,10.23705909735269,-12.589014759743261,-27.214033266722264,backward_4,backward_4,0
432,0.24229324454043058,0.5135360316461325,0.0034610710132120916,2.0502104553320053,-22.525975579401006,-18.80188793209831,backward_4,backward_4,0
534,-0.10480498670998958,0.3296783829592168,0.03044517333745947,4.033201518569966,-9.503828215422796,-4.360230207633895,backward_4,backward_4,0
649,-0.20480318688623603,0.31643717936605215,-0.2621805131649972,1.4591069307841553,-6.253251628558237,9.994234004905053,backward_4,backward_4,0
749,-0.47924512805290514,0.37469440105840557,0.4451434634214639,2.026788797517021,8.26138735020668,23.69061495506461,backward_4,backward_4,0
850,-0.4764361350467802,0.6477471382759511,0.777375651742816,1.9908128251207302,26.892918411573824,38.33866323775497,backward_4,backward_4,0
950,-0.3027355040412396,0.657719666235894,-0.08168506361365316,1.8447765504766878,42.73012960801062,38.35463153701554,backward_4,backward_4,0
1050,0.33032654466964295,0.3062449880799651,0.08475228377759461,-8.49776260964371,29.65010117194897,22.780074923602125,backward_4,backward_4,0
1150,0.25493653338611116,-0.08450108549550177,0.284439574341774,1.3905343074607999,33.678494151965886,8.596490432775306,backward_4,backward_4,0
1250,0.5262669768556951,-0.14860712089434264,-0.29055916781365865,0.4243979021922434,8.499497648447624,-6.869386259621621,backward_4,backward_4,0
1350,0.8550346747107802,-0.29212884289622304,0.06155471425473693,3.1836235721481443,-11.627289119885965,-29.446713847901083,backward_4,backward_4,0
1450,0.6591336100739984,-0.6550567598630488,-0.18249030585646628,8.60677183115556,-16.972225651103848,-43.792793320214926,backward_4,backward_4,0
1550,0.29213096909459674,-0.4128985764117538,-0.5671178673255444,14.498427012505706,-20.967405128734278,-33.207822059656266,backward_4,backward_4,0
1650,0.26067680868420745,-0.43789828537270414,-0.10956138015031813,1.9268103667483956,-35.1344380221454,-18.149448796539552,backward_4,backward_4,0
1750,0.13518004664678124,-0.5518440180870889,-0.07897872726440436,5.627238836407722,-13.222147170329865,-5.672584120797977,backward_4,backward_4,0
1850,-0.03494120611507448,-0.25730519143968816,-0.2508603115361929,1.2167282765761434,-8.830275855233793,12.575754545111232,backward_4,backward_4,0
1950,-0.10491559286456556,0.02644277660220854,0.5607725314998626,0.20974742544827513,-2.269546868733424,27.898930144235827,backward_4,backward_4,0
2050,-0.17383882659330963,0.3156079766133427,0.5001069919437169,3.3325434672824024,22.973918424322754,32.562100073636756,backward_4,backward_4,0
2150,-0.18110276779472828,0.28468238473474977,-0.08815349974930292,-4.806717880752973,41.299339873129064,27.39183999553589,backward_4,backward_4,0
2250,-0.007971373431459084,0.21142562992677094,-0.09213935451507572,-16.98290909149413,31.785827559368926,16.72850597462967,backward_4,backward_4,0
2350,0.04324530401919036,-0.05765881010126317,-0.23470643536672,-22.758600552719514,35.15236043852752,13.42612398239181,backward_4,backward_4,0
2450,0.06087108667865392,-0.21317868901019285,-0.744284971300761,-27.238244010600237,38.9312774293925,4.472017124785583,backward_4,backward_4,0
1,0.26159252128546745,0.26300698814888795,-0.03868385350008802,-11.95247801211959,27.726978196660497,24.3700153516801,backward_5,backward_5,0
114,0.25504545219038843,0.2823263377409428,-0.3402100061066448,-13.047641962861952,21.358368497215203,23.199978475943134,backward_5,backward_5,0
215,0.19018927199439145,0.19868068541795014,-0.12470143232822414,-9.394186518393802,17.087399693304825,18.605108853425,backward_5,backward_5,0
315,0.28171135312764906,0.2003645176255703,-0.12185820095241069,-7.966969740844436,7.888443545542626,9.182140600887687,backward_5,backward_5,0
415,0.37320070651497683,0.2667349323728681,-0.17710522259116165,-1.965823809645956,-4.017912845810171,-6.490987253570606,backward_5,backward_5,0
531,0.2622375844210013,0.4805213585337996,-0.07686649896383284,5.184640956020967,-9.727460456292377,-18.095048693014018,backward_5,backward_5,0
631,0.389931089317724,0.3622713527542353,0.16669371869206426,-1.087167955002735,-21.466072396205494,-27.82965423020746,backward_5,backward_5,0
731,0.08093069427587088,0.29110908600747587,-0.3498274662446975,0.44503753858091705,-20.17567815887487,-18.626551170443285,backward_5,backward_5,0
848,-0.018420666670724766,0.2215206152226031,-0.15554069032371046,-9.653595054014138,-26.02573689053808,-8.662221441271843,backward_5,backward_5,0
948,-0.24355831795975566,-0.10399921597853301,-0.32675884225070473,-1.9102953108447664,-9.880218809684454,9.14181546818479,backward_5,backward_5,0
1048,-0.19993664760231972,-0.12068082773610948,-0.11690858649492264,-7.518799215835578,-11.06643274656806,27.26735655357255,backward_5,backward_5,0
1148,-0.732817635770291,-0.05638306915745137,-0.07096879000127315,2.682371975872433,19.89480041770248,48.48811021796344,backward_5,backward_5,0
1248,-0.1937631027600169,0.044418519823551175,0.0444860905539989,-13.571606435415873,22.3647179720595,47.07854836951281,backward_5,backward_5,0
1348,-0.20189961823835967,-0.22027312860563394,0.245923322751522,-4.811580697965586,35.739248797206464,35.759214293924046,backward_5,backward_5,0
1448,-0.059116008559204625,-0.1819646745471656,0.04642939202845087,-11.226093434337283,27.236644607969588,23.579525684818396,backward_5,backward_5,0
1548,-0.13980821059755982,-0.29159932451635595,0.10934604228615755,-10.011971024339886,24.92153098596207,8.169545553041562,backward_5,backward_5,0
1648,0.4016338020711392,-0.010407236889302762,0.1496662453323602,-9.146895336002625,1.2731231848735547,-17.602706155367834,backward_5,backward_5,0
1749,0.29150519457254553,0.003025368396639813,0.0575450109958648,-1.9690809561064058,-10.167834020208868,-36.33537899947398,backward_5,backward_5,0
1864,0.11884346354763956,0.13606272584587337,-1.1158328812849523,-6.980709122337449,-11.13693967946436,-34.59770135197566,backward_5,backward_5,0
1965,0.08462719609320166,0.1271750412870943,-0.3553730592209101,-6.641663654579892,-16.30607721597514,-28.785519861241575,backward_5,backward_5,0
2065,-0.14995635085273532,0.21855334830179807,-0.603312631778717,-8.844486832198287,-11.837215496290495,-30.042190657197132,backward_5,backward_5,0
2181,-0.40431717401664696,-0.03884218099594115,-0.6372587405222654,-6.835164365181553,-5.4433120019656664,-18.177435069776863,backward_5,backward_5,0
2281,-0.5499867290087044,0.05875906296074392,-0.181082894050479,0.7676538400636534,6.862588940736991,-3.96440255985299,backward_5,backward_5,0
2381,-0.388377276697941,0.17176080743633212,0.8434963587388395,8.226337892971301,6.87292171494641,2.1344410525398603,backward_5,backward_5,0
2481,-0.471933450897162,0.4564660518479844,0.30736693887909244,5.6247968161064685,13.806138418894989,1.6201866116977854,backward_5,backward_5,0
1,0.3872019371307143,0.20343631654431418,-0.03435429986317956,-7.861849401373019,18.60119972805568,25.947571053082033,backward_6,backward_6,0
114,0.3720971364937722,0.2823587056405842,-0.054715194397419696,-7.832847279792283,18.677569140382648,25.162262796183825,backward_6,backward_6,0
215,0.3189329965034685,0.3878137610636651,-0.19521967285692693,-6.962176215109584,16.58002517528168,22.542303744253473,backward_6,backward_6,0
315,0.17053072130536656,0.47141430290982117,-0.06894868235051635,-8.52746808418379,10.895027014912475,14.723849380589701,backward_6,backward_6,0
415,-0.06259800180280584,0.5866621165856718,-0.20462217507004735,-4.972509324976852,6.948274944535266,-1.4656271147432136,backward_6,backward_6,0
515,-0.2338754169428907,0.6592426087933778,-0.08854945487737656,-1.8826671529633796,-2.917237998290644,-18.893113304690832,backward_6,backward_6,0
615,-0.5383906147816591,0.4864885086968541,-0.08382149112045764,-8.34681009290114,-13.075879437650325,-37.52759637381725,backward_6,backward_6,0
715,-0.4026687492224946,0.0795619924320281,-0.06643734250366687,-9.639096099198763,-12.245823111027413,-43.31351484804163,backward_6,backward_6,0
815,-0.2898880380462296,-0.029006840323507737,0.1099217963474989,-4.027435045985819,-8.553680514604958,-43.688880529729644,backward_6,backward_6,0
915,-0.13237520009281112,-0.09841986686319107,0.20961516105175018,-1.306403110849714,1.17085510394041,-31.456899992338368,backward_6,backward_6,0
1015,0.20653721125787125,-0.1748528843936324,0.20384838499248029,-7.296523409180502,9.303430892061446,-11.517851816267884,backward_6,backward_6,0
1115,0.49923993774538855,-0.05528098236054178,0.39446681843817233,-1.3542644661754717,19.869167656898433,11.373790832331812,backward_6,backward_6,0
1215,0.3294718677223287,0.26280761747434733,-0.15158675045311448,-9.13742246126537,22.06918576120207,19.040023843548635,backward_6,backward_6,0
1315,0.47520218011155724,0.14860219629742205,-0.2875287725287676,-6.181544716802132,23.889132354234285,23.5614390557476,backward_6,backward_6,0
1415,0.5227120754661412,0.1476262785504013,-0.2232022554731369,-4.446120690220453,10.938870682213707,22.519021902545237,backward_6,backward_6,0
1515,0.40349489054180687,0.4190820142870396,-0.18832804287314417,7.469457822549694,6.702023231558402,11.622782187545624,backward_6,backward_6,0
1615,0.5014861128902435,0.5108207959511131,-0.24824025061786173,11.137055109661334,-0.6121073807740125,0.9428771031845773,backward_6,backward_6,0
1715,0.4938202690505237,0.48642913588590925,0.5412886633509397,20.438491842617232,-7.931245546296424,-2.8384881689883885,backward_6,backward_6,0
1815,0.011252192506939141,0.4926239427119493,-0.18835574921071538,3.4094054643145766,-12.386100127474617,-0.051727840037539254,backward_6,backward_6,0
1915,-0.1648004742109403,0.2287086854827404,0.09084545686006536,1.3899107965669437,-7.34063925952015,3.9792874203564694,backward_6,backward_6,0
2015,-0.2688417830720543,-0.1606873763363063,-0.13643208522796635,-4.031805427903615,-9.379070114477457,10.077881709500273,backward_6,backward_6,0
2115,-0.5055259044133871,-0.29533178904294966,-0.1715090100193024,-2.3747994862017707,-2.591053605985492,16.600246889470515,backward_6,backward_6,0
