time_ms,acc_x,acc_y,acc_z,event
19,0.4378593562148511,0.40361514130756254,-0.18999708667695522,
119,0.6484770599856973,-0.2672295255698264,0.28975042332708834,
219,0.9256077287796884,0.41648295231759547,-0.19289689977169036,
319,0.4911181412588805,0.8240363098569213,0.5407318477988243,
419,0.17890052312314508,0.31676337180659175,0.5275070400446653,
519,-0.37974874722547824,-0.37990795637518165,0.04079319815933704,
619,1.3552290526770054,0.5123968569353222,-0.07018646590411663,
720,0.24872957215802743,0.20532880358248948,-0.18494857111573218,
820,0.11285082823019474,0.18390724536925554,-0.019364041161537168,
920,0.22212166081545873,-0.023669337140023707,0.019819968235492706,
1020,0.09114029700774699,-0.0960213105149567,0.4306079237818718,
1120,-0.12422998985135927,-0.0497115408912301,-0.2167325333893299,
1220,0.04236879974587354,-0.0868441707164049,-0.23383739744722842,
1320,-0.004058216749085113,-0.09529591884985565,-0.06888882730901241,
1420,-0.045208996174437924,-0.039459319207072255,0.06753390556871891,
1520,-0.039449423434142955,-0.1561170289069414,-0.03726210142374038,
1620,-0.07324687638804316,-0.10063640309497714,-0.02471533906161785,
1720,-0.028891204540734176,-0.14633870834484697,-0.11904548161923885,
1820,0.11773609778741374,-0.12108385557904838,0.11036766964495182,
1920,0.032381761486676985,-0.052072717064619065,0.07251695467829704,
2020,-0.02330851132086245,-0.10056099977120757,-0.03807517137229442,
2120,0.07955531061617657,-0.08822320398464799,-0.13037526940703392,
2220,0.22836490258658304,-0.031972032191604376,0.15836685366034506,
2336,0.022195994918141514,-0.052609600420296186,0.5410357991814613,
2436,0.10254552465192973,-0.08035466256663203,-0.08178688732683657,ROTATION_90_LEFT
2536,0.16435157235944642,-0.17445530721731484,-0.024876667103171348,
2636,0.5366191152503713,-0.10782003098875284,-0.38571547361016273,
2736,0.5745873556494713,-0.0434088605504483,-0.08001344791352748,
2836,0.6114966615801677,0.07034772088043391,0.18871113851964472,
2936,0.5573460787955671,-0.02568484168089926,-0.19495675491094588,
3036,0.5629218331012874,0.0949417716499418,-0.298553907507658,
3136,0.07173440773217007,0.2735616512008011,-0.38706338108778,
3236,-0.31790161858890204,0.7708228252593428,-0.0023690672188997268,
3336,-0.002508366091735661,1.2505302224487065,-0.65174482960999,
3436,0.8083969883069395,1.0803099224526433,-0.640707887288928,
3537,0.42423692744523284,0.23827216502428053,0.3577034310907125,
3653,-0.039556678634323175,0.2496269411228597,0.427190808814764,
3753,-0.7762129207998514,0.038164895482361315,0.08347440202236175,
3853,-0.8266295412205159,-0.015511895778030155,-0.5068178877592087,
3953,-0.9125430800233035,-0.1747008794762194,0.9316483971834182,
4053,-0.5560098617557436,-0.06244878432415425,-0.780428492668271,
4153,-0.45369741520732637,-0.5143441185455769,-0.16015899777412412,
4253,0.00438642579014413,-0.16318674809746445,-0.0924649332076311,
4354,0.2722700770203024,-0.07366999717094004,0.6241735165953636,ROTATION_90_LEFT
4470,0.32575079771932214,-0.0902782368183136,-0.343953722679615,
4570,0.3340203942188993,-0.25157434886358676,0.03692775490283966,
4670,0.8704465441804379,-0.035882483633607624,-0.24788638106584548,
4770,0.8585137489981949,0.3301840674590319,0.1860246759146452,
4870,0.68863941289559,-0.08705379487909376,0.6836930425345897,
4970,0.349840588761121,-0.17979659518003463,-0.34254560944736,
5070,0.24208646261543035,0.061582449818402524,0.11374269903600215,
5170,0.1802575637552887,0.874270997839421,-0.18162088799774645,
5270,-0.34001901357918973,1.0093578790035098,0.019497896674275397,
5370,-0.32033059930149466,1.2841060365751384,-1.3130232112407683,
5470,-0.0486934498898685,0.11213314494751393,0.24371523286104202,
5570,-0.3948262701742351,0.22505049907527863,-0.4431792360633611,
5670,-0.5217557465089485,0.3180728469699621,0.4401005592703819,
5770,-0.7301420744985342,-0.09084902244359254,0.2879875053077936,
5870,-0.44708738595042374,0.25036636131331325,-0.5242039068460465,
5970,-0.6346285673752426,0.16797259413450955,0.4700187276721,
6086,-0.4099767487613484,-0.334316271892935,-0.16792320203483105,ROTATION_90_LEFT
6186,-0.0728923821282573,-0.22387597540318965,0.11952303600311279,
6286,0.24478666148483752,-0.1266346215739846,0.2770382412701845,
6386,0.5094061141541227,-0.2868832703929394,-0.22504034300744533,
6486,0.7145404546104371,-0.2201814317341894,-0.0957546224027872,
6586,1.1543565709162502,-0.10478234379328787,-0.0012806874603033065,
6686,0.9015799335908145,0.0669081018205732,-0.008315992924571037,
6786,0.1474958607570268,0.2339485296715051,-0.07740940289497375,
6886,0.031171182403806594,0.3692790103331208,0.0398538714826107,
6986,-0.15683902303855865,0.13457747033722697,0.13518062386214733,
7086,-0.209488882404007,0.11910378767773508,0.3026198417723179,
7186,-0.4714606701087206,0.6944101052515208,-0.20026830532252787,
7286,-0.49546745904218403,0.9801342687372118,-0.17597440654337404,
7386,-0.09946918594650923,1.4107491337165237,-0.9787105926096439,
7486,-0.07477697203215211,0.7586956034835427,0.09046236121356487,
7586,-0.43784284347146746,0.14914908959046005,-0.2574877376258373,
7686,-0.677807637757808,-0.3823237122800201,0.1832914515584707,
7803,-0.2926469119535759,-0.023338132424280046,0.02029109287858009,
7903,-0.4235569458244368,0.12432473719641565,-0.3133838123708963,
8019,-0.5584808915117755,-0.00887114258930087,-0.501231612059474,
8119,-0.5544254421085119,-0.10766937047168612,0.6104863520264625,
8219,0.1607454193599522,0.09191182936951517,0.18129764739274978,ROTATION_90_LEFT
8320,0.47398142075799404,-0.0022721096504479646,0.0366863473623991,
8436,0.6065094477521256,-0.19263028472475707,-0.3586941956937313,
8536,0.7865987057358026,-0.13752170709557832,0.05440320583879947,
8636,0.9450498036134988,-0.21273440366387367,0.06552315026819705,
8736,0.3471618345385417,0.12198080441877245,-0.12250935833752155,
8836,0.0734284617663361,0.27336276762783523,0.4604442591190338,
8953,-0.22198577774241565,0.26416882282495496,-0.011858780097961425,
9053,-0.12909227125863543,0.014187223045527934,0.027768881413340565,
9153,-0.5119226270196959,0.6706758861817419,-0.3843079448997974,
9253,-0.5447575961835682,1.133847743633762,-0.6889233444035053,
9353,0.051563808561256155,0.8804309087086468,-0.1541039355188608,
9453,-0.0005059584944508969,0.04226838527843356,0.3750853585243225,
9553,-0.025283421273156997,-0.08335494036115705,-0.3109223906934261,
9653,-0.34351306624002753,-0.05687799845449626,0.037484219741821284,
9753,-0.1157906445417553,-0.3759108495630324,-0.043484336939454075,
9853,-0.11642556317811831,0.5885084751047194,-0.8546353001296519,
9953,-0.5112536782495677,-0.023730419677495954,0.7814385464936494,
10053,-0.1469248468028847,0.17961875439509747,-0.6707061351895331,ROTATION_90_LEFT
10153,0.0629084057591157,-0.0868144331652671,0.23720658161938188,
10269,0.4398183447955176,0.004445946558192372,-0.04249824851155281,
10369,0.6155190124314278,-0.04501958368271589,0.10048515805602073,
10469,0.8984467501316219,-0.39111046452149745,0.30483751782178875,
10569,0.6548105007909238,-0.2228495549649,-0.4630483041375875,
10669,0.24102650523371993,0.06749233144931495,0.24528935030996799,
10769,0.21464337909035383,0.19167247254326938,0.038406595283746715,
10869,0.18447788486406205,0.1921274497691542,0.2468219667047262,
10969,0.2328117807265371,0.1332132693119347,0.0071843585461378095,
11069,-0.11583276665043085,0.5776966102438047,-0.2296644956767559,
11169,-0.274605132371746,0.8967129851415753,0.014496727386116981,
11269,-0.44693362016081806,1.0953892720323055,-0.7287824765831231,
11369,0.06105203730270732,0.5309902425179258,-0.20403847151100635,
11469,-0.025404453836940226,0.13558536873813717,-0.3342933294087648,
11569,0.09978899248540402,-0.13752967120632528,0.11321195316016673,
11669,-0.009482652950612827,0.061706733785197136,0.07376373986899852,
11769,-0.2588399194197729,0.08810936834663152,-0.10766600947082042,
11869,-0.599538330097869,0.1884921620067209,0.17996669104993343,
11969,-0.3983061116466298,-0.05512669780775904,0.27246085035204887,ROTATION_90_LEFT
12069,-0.2858442827340215,-0.18583068771250544,-0.07749182048141956,
12169,0.0967678545659408,-0.07163534953817725,0.19401742823421955,
12269,0.18761088566016404,0.02103752733170986,-0.1245417409479618,
12369,0.5928448238085955,-0.21575857379063962,-0.12615092971026898,
12469,1.0223631987880915,-0.10953216866888105,-0.10290566320121287,
12569,0.9541177839491516,0.07117007011398672,-0.029057167658209797,
12669,0.4707523757088929,0.08010441413260996,0.18817805455625056,
12769,-0.29249815113265065,0.26252090948745604,-0.4423573982864618,
12869,-0.09574421060662716,-0.06745879450589418,-0.12894903599619864,
12969,0.1087574945019558,0.3910214710637927,0.27030104196965693,
13069,-0.18738416423220186,1.0160473667047918,0.3496130636155605,
13169,-0.10502305721398443,1.1402791649207473,-1.2661270200312136,
13269,0.08339898043228312,0.2087766059488058,0.5403098229944706,
13369,0.08412557767378166,0.13858392949961126,-0.725470575556159,
13469,0.21786573867034165,0.08605185129493474,0.40135552581250666,
13569,-0.47572742417510594,0.035106530825048686,-0.18085867145359516,
13669,-0.2933157511258498,-0.12516184560768306,0.17824702765047548,
13770,-0.6296852657541633,0.36605851391665634,0.47042263229787346,
13885,-1.084665414248407,-0.1433456640087068,-0.6558990266799927,
13985,-0.42356523872874674,-0.003224076613038778,0.03790507550239563,ROTATION_90_LEFT
14085,-0.07521806686315685,0.22968846107423305,0.20506664551496503,
14185,0.04860966233024373,-0.03426416171677411,0.18689853613972662,
14285,0.1424348419072572,-0.22538996016271412,-0.13535890303850173,
14386,0.6939983095802367,-0.2868235760949552,-0.2893915268868208,
14502,1.0281696931097657,-0.15223938375599683,0.2126899800002575,
14602,0.6092516225997359,0.03220708305649459,-0.30633973907828327,
14702,0.2848836392746307,0.0946251799814403,-0.10237257923781871,
14802,0.07058706432795152,-0.025202611121907827,-0.10217851797044276,
14902,0.08976545585743151,0.2585130620855838,0.5108224472254514,
15002,-0.2619826926912181,0.491516200665757,-0.009556932896375655,
15103,-0.5110092385018244,0.5276473252981901,0.17572715378403664,
15219,-0.5363283156102523,0.5387071370381862,-0.5456698887228966,
15319,-0.1964461897511035,0.9170109461523592,-0.5230354475885629,
15419,0.09868015446066856,0.5211735261742025,0.20847499265372751,
15519,-0.04653347711069509,0.1859715574879199,-0.24253800577521323,
15619,-0.29482584516154603,-0.23948139468356966,-0.03136719816625118,
15719,-0.19288615918196736,-0.0947824894350022,0.20828093138635156,
15819,-0.36865240286737677,0.19003369236029682,-0.39526071606874463,
15919,-0.49862369458340106,0.04835135845392942,0.40163901892900467,
16019,-0.652162397434935,-0.07404533328935503,-0.0741921944141388,ROTATION_90_LEFT
16119,-0.16329371560327707,0.024105244339257478,0.07108721413612365,
16219,-0.036307065721228715,0.09608648470565676,0.031979192584753034,
16319,0.008028198092291132,0.004266133011877536,-0.13697919771671294,
16419,0.41280828239284456,0.053334699824452395,0.09156301593184471,
16519,0.6386296927753835,-0.06667670421749353,-0.382231138625741,
16619,1.087719102730602,0.03383578023687005,0.3830056301295757,
16719,0.6572853664718568,0.11326068767271935,-0.32869711683690545,
16819,-0.16328321247557176,0.20224296639636158,0.0774941585689783,
16919,-0.3512068721456453,0.17255648785866795,0.1866688190370798,
17036,0.19411630376512184,0.02596424314416945,0.3218611333370209,
17136,0.15572479645265266,0.05209215241745114,0.12104630004763603,
17236,0.03375551807489246,0.7868536303449422,-0.7627823613405227,
17336,-0.2751298868982121,1.5791751707069575,-0.33682314014732834,
17436,-0.040656493102386594,0.7585904626086354,0.023424130207300185,
17536,-0.1462561446279287,0.2059764538362622,-0.05926759700477123,
17636,-0.47412360570766027,0.0013565291754901408,-0.06204115337133407,
17752,-0.6116982120342552,-0.3044870969489217,0.12133797647058964,
17852,-0.6051815966818481,-0.13156513677872717,0.10797288346290587,
17952,-0.13484773864597083,0.03242525585182011,-0.08146715385317801,
18052,-0.20498002667743712,-0.06282602013871073,-0.30080665487051006,
18152,-0.2576153460608795,-0.1861773822583258,-0.207120070913434,ROTATION_90_LEFT
18252,0.13055245260484516,0.17021745045185088,-0.019606033223867416,
18352,0.5507050698785111,0.06862067789211869,0.1997223618775606,
18452,0.675749024727568,-0.10245967299938201,-0.10618073934912681,
18552,0.6741720577344298,-0.1019451476059854,-0.09252338539659977,
18652,0.7261941405903548,-0.07387611420229077,0.08192015831768512,
18752,0.39911304411534215,-0.15288447672650218,0.10329086312651634,
18852,0.43362434899359936,0.1288029785890132,-0.251395265969634,
18952,0.28047154018711296,0.29024785145521165,-0.2939654106736183,
19052,0.07379685212073382,0.07159377541877329,0.5624029968589545,
19152,-0.016539412194862962,-0.009024506520107388,-0.4330582395434379,
19252,-0.4431356891825795,0.42890711121335623,-0.2210287692785263,
19352,-0.7018006538942456,0.5139148602828383,0.42059973998665806,
19452,-0.7069542372651397,0.7831499535214156,-0.16656360411942003,
19552,0.15565967706087977,0.6584013648897409,-0.06385024861991405,
19652,0.4893195308716967,0.2425803105469793,0.004793079495429993,
19752,0.47879148792084303,-0.04855126494020223,-0.3673579791426658,
19852,-0.15895605172514915,-0.253876342195645,-0.5013251355618238,
19952,-0.47134676140546794,0.11102284561805427,0.07444003169536591,
20052,-0.536530962042883,0.10255042002275586,0.03236673059761524,
20152,-0.30023791507184505,0.20429288466349244,-0.16290157448053358,
20252,-0.528239957429096,0.01697356582842767,0.39396132390797134,
20352,0.012480585807713213,-0.1860011489085853,-0.08841244294643402,
20452,0.38551333863418547,0.11015453835092484,-0.28644670560657975,ROTATION_90_LEFT
20552,0.040588195372838524,-0.0828995978090912,0.20594167478382586,
20652,0.095691475772392,-0.19909699652083218,-0.1102764842301607,
20752,0.44650027024485167,-0.016089549535512924,-0.03350771732628345,
20852,0.743793802427873,0.03134111387692392,0.25317221251428124,
20952,0.516915357273072,0.12366656554862857,-0.280955706974864,
21052,0.033089519313676284,-0.08814137092009186,0.5075917947411537,
21152,-0.07944354820423759,0.1459299083482474,0.003353402081131935,
21252,0.05819783061509952,-0.09202281546331942,-0.2570557759493589,
21352,-0.26439735261751335,0.3977487334921956,-0.16605507007539272,
21452,-0.4338892470074817,0.47836767301820216,0.3940396498411894,
21552,-0.1413427906205412,0.8044170518252998,-0.8063081993341445,
21652,0.2561077179769054,0.2757643123442307,-0.0684060122281313,
21752,0.1598158103596419,0.24661891841329633,0.014903554621338843,
21868,-0.10721078564976341,-0.21819310746118425,-0.6985223628759384,
21969,-0.15638532445430756,-0.16368490687794982,0.08216682655513285,
22069,-0.0768850228278432,0.19048793893381952,0.3617933307528496,
22169,-0.0356068815626204,0.283446866203472,-0.09437398169934749,
22285,-0.5599511832600459,0.05430332566089928,-0.22129238865077494,
22386,-0.5012605093603953,0.08731032692342997,-0.16945874103903769,ROTATION_90_LEFT
22502,-0.33882271646670997,0.05466653295010328,0.01634673916697502,
22602,0.10252369641261175,-0.023894524198025464,0.011614449948072432,
22702,0.20556918820962308,-0.05437960576750338,-0.1367500651359558,
22802,0.44123796580247576,0.01845854368917644,0.0937894598096609,
22902,0.7802007483270019,0.10731178920567035,0.02410626725256443,
23002,0.7516166780732572,-0.030282617799937725,0.2689998962432146,
23102,0.5711041531762108,-0.17359554858282208,-0.43139235215783117,
23202,0.23139725601980463,0.15388269398361443,-0.556599863538146,
23302,-0.14602759656906128,-0.034788989308476445,0.4792763853609562,
23402,-0.06769128808751702,0.20997268386557696,-0.18128654147684573,
23502,0.045280609239079055,0.23677096668109296,0.07149637945890426,
23602,-0.20246771506294606,0.36922508818879723,-0.22883447459340095,
23702,-0.4551140405395999,0.4908589788660407,0.22471593335866927,
23802,-0.30408960379762573,0.9404181252248585,-0.6790957778722048,
23902,-0.08762680899407714,0.5304069262046367,0.19194763622283934,
24002,0.10286134913545102,0.11616232739835977,-0.14400164369940757,
24102,-0.07405961754303425,-0.2351747104655951,0.005725976431369781,
24202,-0.44405959909446535,0.0303364668790251,0.29368776277601716,
24302,-0.5294108278393745,0.06339928998202085,-0.26072657341659067,
24402,-0.184778000321798,-0.19541743122525512,-0.165271226221323,
24502,-0.5011406823730096,0.07137099951356649,0.1344365274965763,ROTATION_90_LEFT
24619,-0.2105795089186169,0.09175561589449643,-0.1192307750582695,
24719,-0.10388267327351496,-0.07788980682305992,-0.005037994167208671,
24819,-0.019526227719616145,-0.03994542222358286,0.02423135493695736,
24919,0.20892571382960304,0.017281974190473556,0.013947861331701278,
25019,0.25630610835952683,-0.08920498156361281,0.33617022919654843,
25119,0.41392219845149664,-0.11369732552431523,-0.1763514231622219,
25219,0.5033228852503001,0.07955123722925782,0.01804945143163204,
25335,0.5307974598921835,-0.046698622810840605,-0.2618500244885683,
25435,0.2935999566284008,0.18245098214633762,0.23677812707424162,
25535,0.01256867964969715,0.28694413373470307,0.24872107832431792,
25635,-0.14442432609088718,0.06367481898777186,0.009048983374238014,
25735,0.21173203995460643,-0.16768574001714587,-0.1808563333660364,
25835,-0.08720427273306995,0.41584092808701095,0.024757424637675284,
25935,-0.18358656204752624,0.9390170262552797,0.3437748589813709,
26035,-0.3861233237586915,1.1141215180963278,-0.7034469597965478,
26135,0.15520787817277013,0.31389391731750216,-0.13319792561233043,
26235,0.09860012976070866,-0.013540266911499201,-0.7436649884164332,
26335,-0.26065873234476894,-0.19928608935214578,0.2929559413701296,
26435,0.05725147140938788,-0.11435608169399201,0.33471067803800103,
26535,-0.0648858204790391,0.06139606040082871,0.6652911244034767,
26635,-0.33371699082553385,0.16654884494170547,-0.5081967748969793,
26735,-0.5448270081579685,-0.0005044423907995223,0.35995500940978525,
26835,-0.30205197875648737,0.15439802309460937,-0.3648714230239391,ROTATION_90_LEFT
26935,-0.19541476434413343,-0.06848989111930132,0.6532382830381394,
27035,0.2192276381406933,-0.06293488734066487,-0.3400497009783983,
27135,0.004164455885824281,-0.1754050822228193,0.12061024671792983,
27235,0.2337212967868894,0.052039399316906924,-0.0005821838021278381,
27335,0.3666603157347068,0.02327566164731979,-0.04279401658773422,
27435,0.47216005054973065,-0.13352781515382228,-0.14688859731256962,
27535,0.03217352784676477,-0.14267353690080345,0.11708031902611254,
27635,0.5241517382673919,0.3454436689764261,0.1688829869776964,
27752,0.6228223942473531,0.10773469079285859,0.10415127934813499,
27869,-0.08283086168812587,0.32463030578941104,-0.5058206934154034,
27985,-0.2762020461743697,0.4955145495869219,0.008152326795458794,
28085,-0.25698727729041126,0.8652904035262763,-0.596276040366292,
28185,-0.12875488339727745,0.7472169818095863,0.06796878985464573,
28285,0.07022221763751003,0.34974691912829875,0.5733394014149904,
28385,0.3544865148708224,0.020918138735741377,-0.3992857338011265,
28485,-0.12287417306192218,-0.3229093272157013,-0.04136018439233303,
28585,0.14016548133632167,-0.3777675102803856,-0.28877427177131176,
28685,-0.4070895028872415,-0.18698416859656572,-0.09679156423509121,
28785,-0.7533247971653938,0.3951119552478194,0.3370306454181671,ROTATION_90_LEFT
28902,-0.860336069054529,0.18618395812958477,0.27969080160558224,
29002,-0.5372733779080212,0.025088994679599998,-0.37658115004003045,
29102,-0.04972595300907269,-0.2065880098633468,-0.15512509526014326,
29202,0.12119254925106651,0.04816949908100068,0.12208207283616065,
29302,0.39863815661258994,0.06523446951992809,0.054823477077484126,
29402,0.7125337178979069,-0.03951587169989943,-0.0789846893876791,
29502,0.9257267520494759,0.0036314883701503275,-0.21123452049493788,
29602,0.5315852858016267,0.10701726323850452,-0.09495791906714439,
29702,0.33067437172662467,0.34841852006874974,0.08828501717448234,
29802,-0.17054799758046865,0.256455179707706,0.20963994477987288,
29902,-0.314136092042923,0.26570173148065807,-0.008100888869166373,
30002,-0.23015121974777428,0.22874292385242878,-0.12190204009413719,
30102,-0.3185535431589931,0.6908066008668392,-0.3332791839301586,
30202,-0.5706728856194764,0.8353096912823617,-0.3310468948334455,
30302,-0.2666304636981338,0.21894166080616415,-0.022587094861268996,
30402,0.010187485884875058,-0.20450360480472443,-0.3710901514083147,
30502,0.08812189903464168,-0.3721731243394315,0.1315694476276636,
30602,0.057784409242309626,-0.02373809152729809,0.06982289328873158,
30702,-0.505930802726373,0.011923735092952846,0.3597790683209896,
30802,0.055027730945311486,0.06415259256735444,-0.46564299680590626,
30902,-0.3942129240488633,0.1278340604916215,0.4101847289562225,
31002,-0.37013511570580304,-0.04027428885176777,-0.2942477347463369,
31102,0.005041154238674789,-0.0835462982147932,0.07443594004213809,ROTATION_90_LEFT
31218,0.18330189988724888,-0.029315964724868533,-0.008701192849874495,
31318,0.14256886181677692,0.0226795954503119,0.20543723239302633,
31418,0.45249063323345035,0.035171558885276316,0.17503800247609613,
31518,0.5899246620455757,-0.003257248230278492,0.06483516800403595,
31619,0.8366490501273423,0.01555303150601685,-0.22989596634507178,
31735,0.71216671121642,-0.07146919919103384,-0.25332827985882755,
31835,0.16464763269657268,0.16958054078780113,0.24127777658104896,
31935,0.01608297366425395,0.3622378596499562,-0.23027473652958869,
32035,-0.13283294649114832,0.18493271595947444,0.14594517898261547,
32135,-0.314123634420149,0.23843612341433762,-0.35936230421364307,
32235,-0.7016015511255711,0.40443931717202064,-0.14153437680304048,
32335,-0.6841849907699972,0.7006016533680259,-0.2842173391193151,
32435,0.01587737722271122,0.6973750194717199,0.03170154468715191,
32535,0.3786702312737703,0.3340162660330534,-0.18944588253498076,
32635,0.20576315814545376,0.22438144070729613,-0.6568640723198652,
32735,0.06780881351996212,-0.03338219125047326,0.2757639835506677,
32835,-0.19617992176404223,0.11482442985810339,0.10057225181758403,
32935,-0.34580647440683093,0.08340024080760776,0.16323942813277242,
33035,-0.473135434920527,0.1991222040273249,0.01476385388970375,
33135,-0.7057842436376959,-0.003435015949979424,-0.36894027989804745,
33235,-0.27392237427197397,-0.18908041022345423,0.22160452333986758,ROTATION_90_LEFT
33335,0.22098100288035347,-0.20987521484047172,-0.06907061361670494,
33435,0.40021073969155546,-0.09755158882215618,0.1896370211929083,
33535,0.6395795408461242,-0.18867475203201173,-0.015621932023763656,
33635,0.5337846590094268,-0.19607830628678202,-0.06286065306067466,
33735,0.5329104334581644,-0.11530695267803966,-0.1458954946219921,
33835,0.30456558727892113,0.04504749460294843,0.025642390778660772,
33935,0.20957049627285448,0.20515037827566265,0.0246522106975317,
34035,-0.061801097537763416,0.17396467415615915,-0.021929507735371587,
34135,0.050173294917773455,-0.0883786137420684,0.08323357900381088,
34235,-0.23876977581549436,0.22325163295976816,0.035760464689135546,
34335,-0.1798335296569392,0.5421227907005697,-0.11720832931995391,
34435,-0.15372951271589844,0.9804138893961906,-0.6871177562862634,
34535,0.042572902916651216,0.7870848818175494,-0.5758288801431656,
34635,0.32188769255038346,0.2460583619210869,0.21931027492284774,
34735,0.0012419446188025175,0.013773600743338464,0.04187047200202942,
34835,-0.013949231304880232,-0.06179616563431918,-0.18860650910139082,
34935,0.08576627581920475,-0.12898089243918656,0.17805705803632735,
35035,-0.330591661879234,0.18932064872011542,-0.3241080354809761,
35151,-0.5046805834695697,0.04995177938789129,0.018098551270365713,
35251,-0.44767121372036633,0.08316168281137942,0.07630816365480422,ROTATION_90_LEFT
35352,-0.2183426354670897,-0.051934185376763344,-0.006025251638889313,
35452,-0.13898703040778637,0.04914879244193435,-0.09147241503894328,
35552,-0.07555062328577042,-0.027183190479874608,0.012190788531303405,
35652,-0.25230061731152237,-0.012317629781365394,-0.18854454978108404,
35752,-0.1647095737505704,-0.018836364025622606,-0.11167582963407038,
35852,0.21717030375208704,-0.1479511119775474,0.03168751616179943,
35952,0.7205103228002786,-0.16767098083943127,-0.05546411306858062,
36052,0.8624225199397653,0.04494958718642592,0.06086451080739498,
36152,0.7595329310905188,0.01228000118471682,-0.4572632909953594,
36252,0.28561180741870773,0.4557343278624117,0.35197920822501183,
36352,-0.1602474980414845,0.2966438361026347,-0.30394027672111984,
36452,-0.1873536412297748,0.016261106710135937,0.04146656737625599,
36568,-0.18269154943656174,0.3770305743079632,-0.37634208058714863,
36668,-0.4385079928493127,0.5530588299304247,0.5201011477023363,
36768,-0.38551775908097624,0.5562712161056697,-0.5354623829632997,
36868,-0.215916394700855,0.08076550838984549,0.6540495994210243,
36968,0.14296883005294947,0.06338299643434583,-0.4168757510274648,
37068,0.07466762990616262,-0.25738676146939393,0.39086394241452216,
37168,0.04038746690265834,-0.17486513012722132,-0.28858196406960485,
37268,-0.4723416541943326,-0.0350040202986449,0.16126491318941116,
37368,-0.29698256653770805,0.4086060814626515,-0.8656956233263016,
37468,-0.37697738281600174,-0.03280431829728186,0.31540333549976346,
37568,-0.21082235949747263,0.00871843624562025,-0.3801537478297949,ROTATION_90_LEFT
37668,-0.027778809152310714,0.13341332192867994,0.01938917560279369,
37768,0.010606505881389602,0.181603060080111,0.12284487390220164,
37868,0.07933117387094535,-0.037470848803594706,0.07048983276486397,
37968,-0.39653128399383275,-0.18797047622017563,-0.20823884581029414,
38085,-0.28867691234406084,0.09272935629747807,0.368428238722682,
38201,-0.5098357742756605,-0.07019421081915497,-0.14272913954555988,
38301,-0.1976238734946586,-0.13074687919840217,0.08447042732238769,
38401,-0.03882509012387599,-0.05368994300290942,0.0035708442240953444,
38501,0.04464088199685793,-0.0654215165246278,-0.13113923951685427,
38601,0.07144640283733605,-0.06903064693249762,0.08803542632758617,
38701,0.12040539006190373,-0.08553462248779833,-0.22599194464385508,
38801,0.028331730327336116,-0.06579246872887015,0.14083178149163722,
38901,0.17124189812876284,-0.07386018598079681,-0.029693127474188803,
39001,0.04834813445038162,0.006952960943058133,-0.06526888324618339,
39101,-0.08292325267931445,-0.020134075685963034,0.06536240674853325,
39201,0.005459274619468488,-0.03719356623217463,-0.1522130072057247,
39301,0.13412016415693798,-0.01105849656574428,0.1581558412581682,
39401,0.025487026687012984,-0.042299218808114526,-0.21331775650978088,
39501,0.6176015908591449,0.26672530237473546,-0.12180676302611827,
39601,1.349291040930152,0.03794591896943748,-0.01158230124413967,
39701,1.3605718750096856,0.09075929833352565,-0.007767711392045021,
39801,1.361913206616044,-0.2814608800180256,0.4500596432268619,
39901,0.9964259167160838,0.7684413369502872,-0.4836497781395912,
40001,0.06368128526117653,0.8008345902286469,0.18268296427130698,
40101,-0.6370721611350775,0.5712994200199842,-0.520484009540081,
40201,-0.8670047331634908,0.34719394670985637,-0.12679974900782107,
40301,-0.5847607764763757,0.7423313286598772,0.4276449823230505,
40401,-0.47547768719773736,0.9589840748112648,0.06926292131841183,
40501,-0.24912900153808296,0.7816568654194473,-0.787608759561181,
40601,-0.30979104857593776,-0.15131876177974043,0.2608785491079092,
40701,0.0012004800972528755,-0.3894770181007683,0.08533785780668258,
40801,-0.38748778051231053,-0.10841770462095737,-0.2178741046398878,
40901,-0.4466401901721954,-0.06863799435310065,0.8742366571784019,
41001,-0.14926940976819023,0.17461773123741148,-0.8783212961435317,
41101,-0.10088122643521055,-0.13520838865190743,0.1911392424494028,
41201,-0.5923856818642467,-0.09039024582542478,-0.15731471425890922,
41301,-0.13206904944656417,-0.10001067241206765,-0.1855360156148672,
41401,0.02181733433147892,-0.04942234868630767,0.0018599486529827117,
41501,-0.044323920435598116,0.17521094789020716,0.011878069320321082,
41601,-0.10020911759361624,0.06715864251554012,0.129957336255908,
41717,-0.03262120768218301,-0.04675225269421935,0.02636836696565151,
41817,-0.07682183053167536,-0.09468692010603845,-0.37573943851888175,
41917,-0.13660979814874008,0.019952727769687772,-0.1372083302974701,
42017,-0.1283407496384345,0.0010032587584108113,-0.1174438916414976,ROTATION_90_RIGHT
42118,-0.35738563384581357,0.005666793590039015,-0.0253536369651556,
42235,-0.5186951533619314,-0.02277677221447229,-0.075890815025568,
42351,-0.9680994014199823,0.0017793576974421737,-0.015195231044292448,
42451,-0.9254458162162452,0.391999960707128,0.09701309803128241,
42551,-0.2567770503395237,0.3267549697931856,0.16049217525124548,
42651,-0.09643485975190996,0.16017273403853177,0.35047815601229665,
42751,0.03342260545925237,0.34498226200975474,0.16699147414267063,
42851,0.09040575392181054,0.6603196926664561,-0.010962123519182205,
42951,0.594976757803373,0.9985817065104842,-0.38970191289782524,
43051,0.6230336989104748,0.9915305458899587,-0.3709878600776195,
43151,0.2080617356777191,0.5118569048397242,0.34621757595837116,
43251,-0.09806216869279742,-0.1161328821081668,-0.6392758086591959,
43351,0.008253339484520256,-0.2646617209084332,0.19006956739127634,
43451,0.15335746453311294,0.021913287252932786,0.0496615642696619,
43551,0.43751331925615666,0.053042438879609105,-0.18608254358172416,
43651,0.751328947173059,0.19828341511562467,-0.5617389799922704,
43751,0.8268436223626137,0.05544467771574855,0.287500014051795,
43851,0.52614386193268,-0.01755494591295719,-0.2582294959038496,
43951,0.3132040718898177,0.05166106752380729,-0.04580021266639232,
44051,0.1437980839513242,0.08737214011326432,-0.008518822020292282,
44151,-0.04384360783905722,0.1162171993907541,-0.12877075681984423,
44251,-0.37308333451952785,-0.02141205973252654,-0.07915712334513664,
44351,-0.41425117467753586,0.10277166155800223,0.10498013138771056,ROTATION_90_RIGHT
44451,-0.5767290073206648,0.04568067793995142,0.14437281509935854,
44551,-0.5531971058899536,0.18577450054585934,0.13868132545948028,
44651,-0.3671321710301563,0.3417374348696321,-0.2659656431138515,
44751,-0.48698286808505653,-0.25105850829593834,0.130641811388731,
44851,-0.11855747890658676,-0.0003688333123922348,0.2689852831959724,
44951,-0.32913992870096115,0.7198143033601343,-0.0338935017734766,
45051,0.04314443746060133,1.128274181285128,-0.2755558937579393,
45151,0.13958136130543425,0.7161819382071495,0.5735837315648794,
45251,-0.2300308265048079,0.2948856673236936,-0.4098620728731155,
45351,-0.23989180211536584,-0.15825659821890295,-0.10905307991504669,
45451,-0.12381507064122706,0.04924984166361391,-0.08576455878615379,
45551,-0.042368009728007014,0.22629808798357842,0.2093044292151928,
45651,0.654571431338042,0.16341288500353693,-0.009587328034639358,
45751,1.0185879180330784,0.1552765594948083,0.3491729186326265,
45851,0.9671038145113736,0.21540179624222217,0.29971126084923744,
45951,0.4897312534777447,0.1261870239369571,-0.31837913644015786,
46051,0.34580048305746164,-0.28489940309934314,-0.19835574969947337,
46151,0.0422811534284614,-0.35932803661786017,-0.3095762367814779,ROTATION_90_RIGHT
46251,-0.11843437311672605,-0.0046891076643019915,0.6051280398637056,
46351,0.019135365238506345,0.18260785320848225,-0.02929974424242973,
46451,-0.36823965734802183,0.01998619164787233,0.039481531038880344,
46551,-0.6427321596581489,-0.08541786424033343,-0.06526011541783809,
46651,-0.5735935223065316,0.19028357546813784,-0.17441022596657274,
46751,-0.564590752694197,0.3028941286690533,0.0049169981360435485,
46851,-0.29894926350079476,-0.0030913170788437125,0.35974458152949806,
46951,-0.11132445891313254,0.07233071139119565,-0.40334757641255853,
47051,-0.03535697105531581,0.46302463100105523,-0.021478256836533545,
47168,-0.26906264101481064,1.159053277365118,-0.9427531440436839,
47268,-0.46801652100421487,0.5702406316820532,0.7364981655269861,
47368,-0.19600414507202804,0.17701229822374878,-0.4703337849706411,
47468,-0.15721081549301744,0.08234751688428223,0.3053764470040798,
47568,-0.47610557330511505,0.12692512895315886,-0.504803040805459,
47668,-0.4960990714766085,0.26666458516344427,0.39825522170960903,
47768,0.6994505836367607,0.3698150899711996,-0.1700508617132902,
47868,1.08563411315009,0.18495514698699114,0.11001578746736049,
47968,1.220037322898954,-0.12148987909667193,-0.14778525389134883,
48068,1.100852067482844,-0.44250148293226954,-0.181920163205266,
48168,0.2931457648538053,-0.1980191381562501,0.07671323732435703,
48284,0.18073106301855296,-0.10006203727312385,-0.5508195265710354,
48384,-0.1341832468552515,0.15659735976979136,-0.06693535515367985,ROTATION_90_RIGHT
48484,0.12172087484095245,0.2382705575890839,0.5104039295524359,
48584,0.0614963881033007,0.16930603469535707,0.0075695584714412685,
48684,0.08682705518482252,-0.00772767164260149,-0.005294014754891396,
48784,0.03911295345481485,0.025134075930342076,-0.06160977621674537,
48884,-0.36892950277570635,0.22335129394195974,-0.0669634122043848,
48984,-0.8698865722101181,0.4416662742171436,-0.14649521408081054,
49084,-1.2154159467086196,0.5242145743705332,0.39321488945484157,
49184,-0.9325539677210152,0.3813178962383419,0.010342530316114425,
49284,-0.41178982606530184,0.14997750323861836,-0.3981663743823766,
49384,-0.2354268037968315,-0.028513489235565063,-0.3765139300227165,
49484,-0.528399020448327,0.20937566782049832,0.09240648101866245,
49584,-0.7583633027892559,0.35413594786748287,0.0903828662365675,
49684,0.18740504262344912,0.25760756461322304,0.11864333055913448,
49784,0.542726638345234,0.5066859319426119,0.012144611302018165,
49884,0.6593012363389134,0.3086716891571879,-0.22174480859339235,
49984,1.1607858733113854,0.19474274683408438,0.17738953403830526,
50084,0.4107110178526491,0.19922244953140616,-0.08166296868622303,
50184,0.7099380023162811,0.3107153968792409,0.13342296653985977,
50284,1.1165263872809708,0.07041201828829943,-0.8842261362731456,
50384,0.22841464174613355,0.22682700722850857,-0.06367021587789058,
50484,0.6131660195644945,0.4051816599719226,1.0640613098978995,
50584,0.7403893277466297,0.07646883410923183,-0.1688876631528139,
50686,0.40365481573082507,-0.09461553537026048,0.20456980190873145,ROTATION_90_RIGHT
50801,-0.04059381226287223,0.026717399599030613,-0.4826479076206684,
50901,0.03601013773442246,0.05730659913010895,0.23913901098668575,
51017,0.14178819630048237,0.07391177003756165,-0.0747714556068182,
51118,0.06532903420189395,-0.03966273282468319,-0.11345862139761448,
51234,-0.4942432875420898,0.19713256458006798,-0.00625146161019802,
51334,-0.8382587503463029,0.32056071826294064,0.34536826565265655,
51434,-0.6244775410432368,0.1320250824406743,0.07013911963105202,
51534,-0.7241261752098799,-0.03460274602137506,0.18851298559904098,
51634,-0.8307022705521434,0.08194101844262332,-1.058079312878847,
51734,-0.3968137176644057,0.11618855781815945,0.06344985112547874,
51834,-0.6896766469888389,0.5411567221473902,-0.03291033595502376,
51934,-0.5724164048185572,0.5136573783904314,0.13537176252007482,
52034,0.07468118350747972,0.46490503792017696,-0.23818857839405536,
52134,0.4160127775225788,0.5066519566077738,0.2278039625018835,
52234,0.42777175050787625,0.2459126698400825,0.031573534393310544,
52334,0.8660801656644791,-0.3786091487362981,0.3023866175383329,
52434,0.7247200494498014,-0.08525470956787466,-0.3400362569749355,
52534,0.3994346407525241,0.1838596799004823,0.2745253816664219,
52634,0.3834135533433407,-0.049173999948427076,-0.014555764096975326,
52734,1.00484420097135,-0.025943492617085576,-0.5028483996063471,
52834,0.7107879702091217,0.43479346583820877,-0.43069677110910415,
52934,0.4358344627911225,-0.0010167758271098137,0.24524843377768993,
53034,0.34389954480696466,-0.12173435537703335,-0.11977379589378834,
53151,0.33348142850399015,0.011496887983009218,-0.36487317658960816,ROTATION_90_RIGHT
53251,0.1733321666725911,-0.08049896640814841,0.22417057443559169,
53351,-0.24894670377373693,0.11059146846346557,-0.00720306324660778,
53451,-0.2277574930116534,0.2471102821268141,0.08599486041069031,
53551,-0.3853886528085917,0.13997392255328595,0.05208440750241279,
53651,-0.6563762157376856,0.27087993783615527,0.09922434433996677,
53751,-0.9963178532317281,0.24546682576872406,0.010689151796698569,
53851,-1.323672907809913,-0.023159780182689427,-0.2570382402926683,
53951,-0.8672711290147155,0.0988755309022963,-0.5296060581505299,
54051,-0.6757222097858786,0.4667333493258804,0.3964484645485878,
54151,-0.7178745674692094,0.594747661755234,0.062380760589241975,
54251,-0.6666847707189619,0.4775895282525569,-0.16562661553025246,
54351,-0.06912566827218979,0.7139950226221233,-0.11832125899791716,
54451,0.7004011623598635,0.48536023531928657,0.5010334591388702,
54551,0.6909129838507622,0.38624490431174635,-0.480395744779706,
54651,0.5847461268965155,-0.12105484868027269,0.77164605127573,
54751,0.6796331726845354,0.2778388170633465,-0.4065758908092975,
54851,0.7727776125889271,0.2408048253070563,-0.010616086560487747,
54951,0.4057555143371224,0.329141280407831,0.0006914893954992294,
55067,0.682371657737717,0.17822459662295878,-0.537200166541338,
55167,0.6723067753192037,-0.23195699052810667,0.0003086275577545166,
55267,0.5387661737490445,0.004446531080082058,-0.08640987095236778,ROTATION_90_RIGHT
55367,0.3374134341906756,-0.0805765616890043,0.1656634404093027,
55467,0.35852051962725817,-0.0806535724479705,0.0575695609152317,
55583,-0.07247497870009392,-0.06514430701844394,-0.0005249006569385528,
55683,-0.30294786815028635,-0.04682202999480069,0.1293044253051281,
55783,-0.3059652980090119,0.10140767972841858,-0.17008944015800953,
55883,-0.43905722422990945,0.3251902777597308,-0.07604279071688652,
55983,-1.0987738729692995,0.40033480446264147,0.3163473383516073,
56083,-0.9705502286382018,0.057391573999822136,-0.25363340028524395,
56183,-0.74759677490741,-0.06053783613629639,-0.9311346024423837,
56283,-0.4496093421760946,0.030899945980682967,-0.20721827059090137,
56383,-0.6755487529151141,0.33817046310305593,0.054286885982751845,
56484,-0.8347535187043249,0.6333158042762428,-0.4715875844240188,
56601,-0.4112343476070091,0.8016114198200405,0.6390186190277337,
56717,0.194339901654236,0.3395239235386252,-0.7250795304119586,
56817,0.10070239926958456,0.42768750629052515,0.8235358129888772,
56917,0.0694070013976423,0.4194382219266146,-0.6502694963604212,
57017,0.9784257112536578,-0.18710655286721883,-0.04730769461989402,
57117,1.103536630391702,0.07790800006687641,-0.22048984009623526,
57217,0.6618751784801483,0.07246295946873724,0.027416414713859555,
57317,0.33045576053988185,0.1150418720010668,0.5963070200264453,
57417,0.6845197756823151,0.2021824318481609,-0.244106862527132,
57534,0.531440872362256,-0.06183569392710924,-0.23228958348333834,
57634,0.3473440227050334,0.016995010475255548,-0.5244967523127794,
57734,0.27329982192683966,0.0711239659499377,-0.012698738053441046,
57834,-0.12042988518234342,-0.5275399194009601,0.4161474367529154,
57934,0.4072129466038197,-0.13317315649725495,-0.2702963657945394,
58034,0.005201039241813123,0.16475085560902952,-0.07716273465752602,
58151,-0.30413704140223563,0.4452833687357604,0.1418266377478838,ROTATION_90_RIGHT
58251,-0.002637344499956816,0.11397351211719214,-0.0035503859579563138,
58351,0.2398450403641909,-0.002904927661269903,-0.19528934786617755,
58467,-0.0902401515639387,0.17680537747479974,0.07486497910916805,
58567,-0.8313184296891093,0.31437545375674963,0.16845979312956333,
58667,-1.0054471353005616,0.26774646211601794,0.3196726833820343,
58767,-0.9323729120656847,0.30848025823831554,-0.257195476680994,
58867,-0.5987265387909486,0.08150492858029902,-0.7718594017654656,
58967,-0.5044954726936295,0.032984058778360484,-0.2573632344633341,
59067,-0.5127139965930954,0.5325369970358907,0.13385434369444846,
59167,-0.8009307440795004,0.5695919585149735,0.22447452581822872,
59285,-0.04441168091744184,0.6549276974298059,-0.7517202845782041,
59400,0.40302159586120395,0.43244142281934617,1.075237368428707,
59500,0.609288082152605,-0.042601489690318704,0.8191174120247363,
59600,1.1243975590474904,-0.36622174165435134,-1.2325520826876162,
59700,0.8102515301324427,0.0301190978012979,0.4426677794098854,
59800,0.27668413060288877,0.5369079055964946,0.6595674860596656,
59900,0.6588268237601965,0.02066189895235002,0.15074176560938357,
60000,1.4723948580294846,0.25955416863635183,-0.8422498658090829,
60100,0.2621834576940164,0.06037760407328605,0.01667699403464794,
60200,0.35048338017668573,-0.06455861608497798,-0.03731061674058437,
60300,0.0384175231031375,-0.42068683374822136,-0.03005319295823574,
60400,-0.07778276625201105,-0.6002757044617086,-0.7426964356452226,
60500,-0.3292554813720286,-0.1735430877432227,0.13555764048099517,
60600,0.20805084895752368,-0.29863676348552104,0.6348369494289159,
60700,-0.3974703184096142,0.295456964405626,-0.4560743734717369,ROTATION_90_RIGHT
60800,-0.0545741784915328,0.45073272018283606,0.506947651618719,
60900,0.07736967367278412,-0.08269815695285797,0.07114274371564387,
61000,-0.14181309327972122,0.02046674170643091,-0.12813304343819618,
61100,-0.4032494863329455,0.2065239316511899,-0.10764788929224013,
61200,-0.3526459285054356,0.13413520646244287,0.21162322755157947,
61300,-0.1427435973291751,0.14466631815321743,0.28921032510101796,
61400,0.19317290370147674,0.03747362528257072,-0.5084036956459284,
61500,0.5078978284830227,-0.07113770221434533,-0.06116027888357639,
61600,-0.8725641208563,-0.051580549633502955,0.13985621445775032,
61700,-1.11518973184973,0.7857912618104368,-0.4448182354420423,
61800,-0.6481710627764463,1.3869149614036083,-0.30253333253264425,
61900,0.22254319242946802,0.29556422417238354,0.08913374295830725,
62000,-0.011925817452184856,-0.07802731559760868,-0.5287509026259184,
62100,-0.2388375438220799,0.25558044269978997,0.40625732637941836,
62200,-0.434692343551293,0.38766266215518114,-0.03412847957313061,
62300,-0.8366114215306937,0.3501530887763947,0.012176760005950927,
62400,-0.09570195150063372,0.07818038726747036,-0.24746318721771238,
62500,0.990589392582327,0.49565147383958097,0.19089374325573444,
62600,0.9495374704215676,0.5761668799258768,1.255714347088337,
62700,1.151399840002507,0.16487316681444644,-0.7350520583719015,
62800,1.4606637959644198,-0.40036235005669296,-0.6799515179187059,
62900,1.019853480989486,-0.12406060636751352,-0.16208675096631048,
63000,0.443010747628659,0.1247935237519443,-0.6373141531974077,
63100,0.08441465114769525,0.41881329496130343,-0.0032668928414583205,
63200,0.08427124235532246,0.31354192554205657,0.3149970927864313,ROTATION_90_RIGHT
63300,0.33472280686721206,0.1380287067696452,-0.2284311544895172,
63400,0.16319631964340806,-0.03913037951365113,0.24654899498224256,
63500,-0.06768344727435614,-0.07224690556526184,-0.3361199603140354,
63600,-0.5240108684919774,0.03433240464739501,-0.05912672722935676,
63700,-1.1081728388249874,0.44894649435319006,0.02924479918479919,
63800,-1.320208884961158,0.47854573299884795,0.28931027834415435,
63917,-0.6089126364363358,-0.0629283845346421,-0.3647065878510475,
64017,-0.5056245132561773,-0.03264488995186984,-0.9135603673070669,
64117,-0.5885972858993336,0.6027034430652857,0.3353267641097307,
64217,-0.257494569225423,0.5380580985449254,0.34169454557597634,
64317,-0.1369738091555424,-0.03780219964981079,-0.04482230754494667,
64417,-0.08727141968514769,0.6675939945183694,-0.9467582880318164,
64517,-0.08003940433869138,0.33639088620990515,1.3757318886101244,
64617,-0.2162290408466011,0.16239384415410457,-0.03683130879104137,
64717,0.7706819554839283,0.43284284322708844,-0.8124702290952205,
64817,1.197199614277482,-0.15453034423738718,0.5315659600466489,
64917,0.651607905357331,-0.02069032132923603,-0.601648965576291,
65017,0.38960568598173556,-0.1279501976845786,0.2372837385088205,
65117,0.37125743426661933,-0.1682246691994369,0.020132687446475027,
65217,0.9077493429407477,0.6651857643328607,-1.3418541689276695,
65317,-0.1097975872725714,0.1854651423357427,1.550204073897004,
65417,0.6332987800762057,0.4956739779323339,0.03737725223600864,
65517,0.3492148580782115,0.2846944551117718,-0.20555764390230177,ROTATION_90_RIGHT
65617,0.17840556094674392,0.032946722442656756,0.07542144394814967,
65717,-0.09376768636927008,-0.004231353959441185,-0.2402437573581934,
65817,-0.8730086497534066,0.09971526966206729,0.04169511543512344,
65917,-1.4262274194858968,0.42394269373901183,0.29760990465581416,
66017,-1.2328719622917472,0.34152598407603796,0.12947218308746813,
66133,-0.7743965190276503,-0.0706514530673623,-0.8409621640861034,
66233,-0.3779004159450531,0.18784502320960164,-0.2097398980230093,
66333,-0.6305724969174713,0.40899719967208803,0.1391249775737524,
66433,-0.9103017308373004,0.47072088459208605,0.20868366696834564,
66533,-0.5134133039688691,0.4754176641061902,-0.03060439710021019,
66633,0.33017376526072617,0.35005130890235303,-0.1444885504335165,
66733,0.34468590941168364,0.08509645026624202,0.800971514481306,
66833,0.8670886120546608,0.21862126974537968,-0.56278410513103,
66933,1.0096432718161492,-0.23247049300819633,0.34683424655199047,
67033,0.7474391731929033,-0.3418064084526151,-0.2301256834477186,
67133,0.10789095906680449,-0.195493638266623,0.2262619937568903,
67233,-0.02101293174657039,0.00760075732730329,-0.45583062784373757,
67333,0.6753128252673893,0.39943040296882387,-0.5604004248648882,
67433,0.7471013926059007,0.398938308602944,0.30622517278790473,
67533,0.14856080484110862,0.2456870443906635,-0.15502455749511718,
67633,0.17399411944635212,0.04454897049628198,0.12827274416983128,
67734,0.4520240021023899,0.0768393479220569,-0.35668285587131976,
67850,-0.143226859934628,0.20571393044255673,-0.5463917732566594,
67950,-0.22726715221144259,0.09685279290303588,0.19897885003387927,ROTATION_90_RIGHT
68050,-0.5100032397970556,0.2669093537047505,0.04986263979971409,
68150,-0.7652633645012974,0.2613034965217113,-0.1785562397301197,
68250,-0.9560659223422407,0.12826799492947757,0.12734627697467804,
68350,-0.8203632473673671,0.005884820254892111,-0.7871411420494318,
68450,-0.5589190272007137,0.13372531048730016,-0.09787468329668045,
68550,-0.786681707844138,0.3848322610348463,0.18788345552384852,
68650,-1.05753066602014,0.6893620280817151,0.005066635739803314,
68750,-0.5099755846051499,0.6184717978224158,-0.24831717369854447,
68850,0.31951362036280334,0.33719431154727936,-0.16482991219460963,
68950,0.48986993129607287,0.6716890087470412,0.7509159824579954,
69050,0.7527589799761771,0.37224034435674547,-0.0707365010023117,
69150,0.8840066483035683,0.038982349345088,0.16436638633608816,
69250,0.9739482005134225,-0.007666077648475766,-0.8131020972579717,
69350,0.3480112544421106,0.07736205662190913,-0.017916764962673186,
69450,-0.021329952673334627,-0.18441914041414856,-0.06129296535253524,
69567,0.595377045699954,-0.27788988966345785,-0.17991291503608225,
69683,0.4167189530305564,0.3458797953713685,0.9985703083336352,
69783,0.7615018930759281,0.28707126724570986,-0.30009821434020995,
69900,0.47257900661416347,-0.04359503077231347,-0.4771352816790342,
70016,0.16830474869832396,-0.09046667206250131,-0.5634247411221266,
70116,0.2027062730591744,-0.01872135934382677,0.3313718890041113,ROTATION_90_RIGHT
70216,0.46158228670563545,0.23413462682813405,-0.08745031991600989,
70316,0.01526997678093612,0.2022626209449023,-0.15065233376026152,
70416,-0.8168657606404274,0.30474567481987175,0.1317436351507902,
70516,-1.499909910812229,0.2797366135086864,0.4558119231432676,
70616,-1.077605120473355,0.4199788316093385,-0.13320903152823446,
70716,-0.7095148815333843,-0.07684117455296217,-0.669889558109641,
70816,0.03760664054509252,-0.18512129733413457,-0.7211591420978307,
70916,-0.44659496279098093,0.5090013692781329,0.05996551614105701,
71016,-0.8521809657800942,0.4195751461792737,0.2354202827244997,
71117,-0.8066364083752036,0.34281105545051394,-0.1735977405399084,
71217,-0.056605574721284205,0.4318953332439065,-0.1501490604132414,
71317,0.615004048646614,0.4825082068890333,0.7624187887251377,
71433,0.8091285905171185,0.1454067612569779,-0.474166495001316,
71533,0.7552149948261678,-0.07136559268608689,0.4381581930309534,
71633,0.5533190517691895,0.18567469343319534,-0.26368133156895635,
71733,0.63043484201245,-0.09643873220942914,0.5298012884616852,
71833,0.4682975664352998,0.08737564724460244,-0.11424071168601513,
71933,0.5309508968882263,0.12393135396465658,-0.5964665945023297,
72033,0.3370484002705663,0.2366300969056785,0.6285077464073896,
72133,0.5858491927675903,0.325222572594136,-0.620565847492218,
72233,0.401569132030569,0.06259959097169339,0.07152209842205047,
72333,-0.11198339774589985,-0.19641835189610718,0.02135784532725811,
72433,0.1718905712958425,-0.21861834713593123,-0.2307131279468536,
72533,0.1538019020986743,0.12333908715993165,0.1585533161431551,
72633,0.15791397706000132,0.21916845529936252,0.13790274230241775,ROTATION_90_RIGHT
72733,-0.15424001952130348,-0.0030196400821208952,-0.07285656189620494,
72833,-0.7568801515594125,0.2995649111811071,-0.12320610843002795,
72933,-1.0984095697015523,0.17418861910514533,0.3845931915819645,
73033,-0.9929087754406034,-0.004852846858650446,-0.7984177383452653,
73133,-0.9258623611278831,-0.09606953357085585,-0.25251111825704575,
73233,-1.018167427598685,0.35559199189469215,-0.2648591431766748,
73333,-0.9886396467540413,0.688154917314276,0.29625790552496906,
73433,-0.6145331431992351,0.850387725687772,0.46939562733769413,
73533,0.15985661729406564,0.38254268879294395,-0.2087321822851896,
73633,0.4185928206110373,0.5747730874799192,-0.32207331478297707,
73733,0.15357417602371423,0.4172628506489098,0.6004033494293689,
73833,0.44401247201710936,0.22354404003508388,-1.0612661262214182,
73933,1.0346123664431273,-0.10162446428425609,1.0108265633165836,
74033,0.7870436730243265,0.12418014109395444,-1.1426707362323998,
74133,0.2517575234107673,-0.1489928030502051,0.5931365732967854,
74233,0.38204789101332426,0.031012174183502793,-0.307455591365695,
74333,0.7990832165166735,0.031147564066201446,-0.43659167436659335,
74433,0.8480129593804479,0.46915758079811926,-1.2835124545961618,
74533,0.4932699855305254,0.25168577334880826,1.437113701289892,
74633,0.381688410051167,0.467772921506688,-0.1602688878893852,
74733,-0.28611197549318895,0.043114188452810044,0.10475918211340904,
74833,-0.08411396030122413,0.00343728097230196,-0.3146615772217512,
74933,0.13862718411944805,-0.11392433921322226,-0.2822229504317045,
75033,0.15995039652474224,0.0022281974434852597,0.2823696654260158,
75133,-0.2679427153404802,0.033442835396528245,-0.5227858567416668,ROTATION_90_RIGHT
75233,-0.5463813614604994,0.07749035917669535,0.05518237351775169,
75333,-0.752093501804769,0.34247020612359047,0.018760814571380614,
75433,-1.0316233406949789,0.21933526323363184,0.1272954235702753,
75533,-0.8701690424133092,-0.3275156519673765,0.07007832935452461,
75633,-0.5471306819904596,-0.122841878227517,-1.1412485944747923,
75750,-0.9354724855162203,0.29254122308939695,0.08742986164987086,
75850,-1.199377542838454,0.8038218624111264,-0.12460019313693046,
75966,-0.6818648041941225,0.9680357615992427,0.37617140019536016,
76066,0.03154926988502266,0.5524271809633821,-0.17573825969994067,
76166,0.7397083597451448,0.2747022726032883,-0.08507306939065457,
76266,0.8685038856800645,0.400580376721546,0.1277577803850174,
76366,0.8679964476145804,0.4092881454426795,0.9071177670389413,
76466,0.3259336069403216,0.1434754278682172,-0.542289598634839,
76566,0.6081043157281354,-0.533647844354622,0.1751701044231653,
76666,0.6128880428733304,-0.2088306742236018,-0.3727098615646362,
76766,0.42732532191462813,0.01985273799393326,-0.5326151768386364,
76866,1.2920973275899887,0.3220287449888885,0.001734276446700096,
76966,0.782733189414069,0.09319799672253429,0.7967705556601286,
77066,0.2628420129342936,0.07032558211386203,0.44849546265006063,
77173,-0.02931179087324999,0.0911525354348123,-0.0826356131106615,
77283,0.1036187433740124,-0.0795139739587903,-0.31741350627839565,
77383,0.10640568894511088,-0.2642673147633672,0.10745675063431262,ROTATION_90_RIGHT
77483,0.13547533249240368,0.1946154671926051,-0.028912206229567528,
77583,-0.5018418529123068,0.2699178878709674,-0.12197393628656863,
77683,-0.9528335893575102,0.3552628330055624,0.5210059875875711,
77799,-1.554868266315758,0.3023051497999579,0.4376034817576408,
77900,-0.8813060110427439,-0.39615678812563415,-0.72002283154428,
78016,-0.3444073116660118,-0.07099120641574264,-0.6938672305464744,
78116,-0.869395062366128,0.5614519797444343,-0.03998305082023144,
78216,-1.0259343352731316,1.0179676672428846,0.31924715144634247,
78316,-0.2675730965767987,0.6587384878896176,0.6469283692389727,
78416,0.22579205642389133,0.8168698522936553,-0.9246890795648097,
78516,0.4926755633013323,0.16653649691678582,0.06987959191203116,
78616,0.38638007499873633,0.07654146095402538,-0.11086334420740604,
78716,0.4916751906197518,0.13189765666872263,-0.08314882332980632,
78816,0.9961999259404838,0.043955899973958726,-0.20164251628518104,
78916,0.9549377220299095,0.15946568174771963,0.4072060054063797,
79016,0.7232702890329062,0.09091551180854439,-0.016098901885747908,
79116,0.46247521695736793,-0.18093275960311292,0.12847381969988345,
79216,0.4254661039140075,-0.33453597905822097,-0.30434593491256234,
79316,0.3618753099478781,0.059264528264850375,-0.031709143471717834,
79416,0.46177590958159415,0.3377267379235476,-0.4575140508860349,
79516,0.09611487968307919,0.15596059623621403,-0.3070703914403915,
79616,0.20158627431960774,-0.08200323349125682,0.1420622000694275,
79716,0.4851336600217968,0.2776329192277044,0.11780044999420643,ROTATION_90_RIGHT
79816,0.4954767017945647,0.08415266661010683,0.7531944487839937,
79916,-0.063500887192972,0.1008724768731743,-0.390966818267107,
80016,-0.41926713967602697,-0.07388977740146219,-0.088617610129714,
80116,-0.695226317005232,0.40727461366318163,0.29888708498477934,
80216,-0.8656339562669396,0.5586204095803201,0.0920294643998146,
80316,-0.5690477321030571,-0.11394231326133013,-0.004226093262434005,
80416,-0.19401116289021447,-0.1511347835149616,-1.1140297481596468,
80516,-0.1789116473053582,0.04566211936995387,0.11958557984530925,
80616,-0.5382748831007629,0.4102716765873134,-0.08055471518337726,
80716,-0.41680140714962033,0.2867899660862982,-0.028143559944629668,
80816,-0.5231828201700002,0.6670123952381313,-0.028075170883536338,
80916,-0.42431203850805754,0.6630115620989352,0.02487082188427448,
81033,0.05015159454261884,0.3765235015686601,0.16032792460024356,
81133,0.042244429014110935,0.17649411956854164,0.10189034867882728,
81233,0.4762630288891494,0.2800125078406185,-0.7047340769976377,
81333,1.0874325408741832,-0.3731055098187178,0.5109603943914175,
81433,0.9601981998413801,-0.2367084228388965,-0.9426742335885763,
81533,0.6698403852056711,0.1298324677672237,0.39034897862970824,
81633,0.7748477699264884,0.21423947446458041,0.5513841747164726,
81733,0.5010676536694169,0.11593860164508223,-0.8171557565629481,
81833,-0.17673355434760452,-0.08853080862909556,0.6754015995293855,
81933,0.4397705601310357,0.14539492468871176,-0.3933411461830139,
82034,0.538431571499817,-0.0034254444040358063,1.0429723446398973,
82149,0.17469792033415288,-0.07913995301462709,-0.2226572472631931,
82249,-0.24503701951671392,-0.15341376129761336,-0.1819149025082588,ROTATION_90_RIGHT
82349,0.27601264281580223,0.1447612298950553,0.18918577029407024,
82449,-0.1431944189697504,0.10602014195993542,-0.11290917082130908,
82549,-0.6629416386678815,0.3206017809256911,0.28200726185441016,
82649,-1.0633850180715323,0.38333858841098845,0.07883797439336776,
82749,-1.1949318154759705,-0.3282977422557771,0.19208616791069508,
82849,-0.23479089877977966,-0.21472703878581523,-1.3686357928693293,
82949,-0.5493153690857813,0.3501013585891574,-0.1834054333269596,
83049,-0.4728654954053461,0.5622484638843686,0.5174351433634757,
83149,-0.6347326853368431,0.5186455420665442,-0.21695406718552113,
83250,-0.6886177125204355,0.46169045978784556,0.191692784678936,
83366,-0.04661254739600699,0.3138001380868256,0.05850128880739212,
83466,-0.1590279113849625,0.1610601113323122,-0.5496510673135518,
83583,0.483470183788985,0.29143837641403075,0.8180740404516458,
83699,0.6593691870085895,0.26926621902920306,-0.2869488099098205,
83799,1.1989235885258764,0.06288564137145876,-0.06921382147967815,
83916,0.7781270838581025,0.09181392195299268,-0.3118202163159847,
84033,0.7082526795778423,0.06117328449562191,-0.5584457836657762,
84149,0.28220130485547706,0.2925387388713658,0.15285188963115215,
84249,0.48094574334528295,0.10518909796327353,0.3699830669492483,
84349,0.8446841802839189,0.40469197675883767,0.11094283918440341,ROTATION_90_RIGHT
84449,0.4034722987707704,0.002234919445216656,0.06188508602678775,
84549,0.2056249917837791,-0.0290234115190804,0.14280805000066757,
84649,-0.08261749293208122,0.05424889205992221,0.11927286063432693,
84749,-0.11604202548693865,0.030764044641330836,-0.21848726810216904,
84849,-0.47197307661026716,0.13005290558487176,-0.019570377388596533,
84949,-1.008115843053162,0.2966006545480341,0.4817021512031555,
85049,-1.1065749751742928,0.2638996504947543,-0.30061610073447226,
85149,-0.6573531710110604,-0.2750735901337117,-0.9218938958883285,
85250,-0.2353332620281726,-0.05771832173615694,-0.5434276627540588,
85366,-0.4754461595483124,0.5791846203118562,0.42129415199160575,
85466,-0.5490767745569348,0.5982521627448499,0.15378011039197445,
85566,-0.5758177376946434,0.41729558387473226,0.10050152466893196,
85666,0.015116357121802865,0.3845060978204012,-0.5780559085428715,
85766,0.4072218605626374,0.6409038482524454,0.474155389085412,
85866,0.18487114023165777,0.4834702568542212,0.49295770471096034,
85966,0.39138508021179585,-0.02702259309068322,-0.10578735611736774,
86066,0.7407754044547676,-0.44465369253009557,0.1888607761234045,
86166,0.8103734760116785,-0.4445226134963333,-0.4777899461954832,
86266,0.24397655067835003,-0.013821020081639289,-0.09552256721258164,
86366,0.31404757350925355,0.16212101856209338,-0.2192243502050638,
86466,0.15305194224789737,0.28389263720959423,-0.23404665628373622,
86566,0.7863378628425299,0.14356719780489802,0.3158417269170284,
86666,0.5642064660843461,-0.089835461486876,0.3127747405618429,
86766,0.6332193581644445,0.10992730546630919,0.06736322517693043,ROTATION_90_RIGHT
86866,0.2666353225363418,-0.1963521547921002,-0.047537411722540855,
86966,0.1737738642917946,-0.3417690721169114,0.1583960797548294,
87066,0.012494064060505478,-0.002109612565115094,0.025610826596617696,
87166,-0.17588238087836652,0.047689241283386946,0.014340075519680976,
87266,-0.04764520121226087,-0.13246983053348957,-0.023903438156843183,
87366,-0.09315978360399603,0.21272461292222142,0.12499649897813796,
87466,-0.5044583920862525,0.3592136895231902,0.18982056106626988,
87566,-0.9177502202123403,0.09926628378555179,-0.38559681566655635,
87666,-0.6228761702612042,0.13195523207485674,0.03757423611283302,
87766,-0.19449436156358568,0.010587664183601736,-1.5266887582749127,
87866,-0.18189908388461917,-0.03275901785083115,0.13361936589479445,
87966,-1.3504713367559016,0.8162814579464495,0.36462241669893264,
88066,-1.7170207759946583,0.47214244182780385,0.18101649236381054,
88166,-0.35988676647916434,0.4558461176738143,-0.8974415916770696,
88266,0.43789994395356624,0.6168604171030223,0.3210883953988552,
88366,0.4391147996360436,0.8438521864391862,-0.1419353588193655,
88466,1.8491230153247713,-0.16062332735024393,0.4517389746159315,
88566,0.28206496512470763,0.5614718534886837,-0.3322551015794277,
88666,0.4674074857277795,0.07974968241080642,0.03604921850264072,
88766,0.17716164356656372,0.2493069884534925,-0.040871524092555046,
88866,0.2730685339216143,0.5879189847789704,0.1621779363811016,
88966,0.8984571253951639,0.4596684524409473,-0.28250410546064375,
89066,0.8269307161241769,0.25710312222242354,-0.9316349531799555,
89182,0.9739676358662545,-0.08585278505887836,0.20610592543482778,
89282,0.29853355883937327,-0.3546762287566438,-0.27744740659296513,
89382,-0.102936898589693,-0.6442734708160162,-0.2774099971920252,
89482,0.2771328790173866,-1.0647228425465523,0.09351414999961853,
89582,0.14421345981918274,0.012660890261083841,-0.45406361817121504,
89682,0.22625090610729529,0.29465763072147966,0.9995148957073688,
89782,-0.18365257648844271,0.21346805170066654,-0.018964812710881233,
89882,0.020179321333486586,-0.046160058954730625,-0.3406213633865118,
89982,-0.09416395567785948,0.08942936490401625,-0.23918986439108847,
90082,0.35051929174028335,-0.061981312942877405,0.013737433451414108,
90182,0.21640626057703047,0.014711685311049221,-0.013585457760095596,ROTATION_90_LEFT
90282,0.40860180714633315,-0.012836392958462237,0.2826455597579479,
90382,0.37409408246465026,0.017587094616889953,-0.011222235760092734,
90482,0.40163306411225347,0.10986783036403357,-0.09854454538226128,
90582,0.2440074572732672,0.06449556078612804,-0.2766600556075573,
90682,0.7156694586403668,0.24515958645045755,-0.37066228138506413,
90782,0.35631475321128964,0.9789799841355532,-0.36220249607563015,
90882,0.2793922570504248,1.281393562746048,-0.23523323571979998,
90982,0.1942851757923141,1.2479665094405412,0.16182663872539996,
91082,-0.29743842054642733,0.19386245686821638,-0.41851475040614605,
91182,-0.16702683771699667,0.04247537909261882,0.6617810704559087,
91282,0.029211189176142214,0.43628867283202705,-0.391701562282443,
91382,0.20968816783577202,0.16802052492946384,0.03863163621127605,
91482,-0.04596954135131091,0.2873968459382653,-0.04336860160529613,
91582,-0.4754739243380725,0.129245826985687,-0.24077274966835974,
91682,-0.9966679818436502,0.2877466822892427,0.7522527840197086,
91782,-0.8788753498297184,0.2360994971603155,0.021902035206556317,
91882,-0.45865631625633685,-0.22237485012523828,0.48823009166717524,
91982,-0.4187609802521765,-0.07819412353187799,-0.8577584005862474,
92082,-0.3623676235094666,-0.17771474740467966,-0.47996144501566884,
92182,-0.2919635875982232,-0.008042875071614981,-0.7509247502863406,
92282,0.05791037370953708,0.09863953018933534,0.14917466242313385,
92382,0.18421165340961887,0.5946140254382044,0.351083720690012,
92482,-0.04809071649005636,0.27374957498833535,-0.027233459362387656,
92582,0.1051919292411767,0.0311202376678586,-0.08912380608618259,
92682,0.01832541882880032,-0.24099625622592866,-0.21847850027382373,
92782,0.3277241070862859,-0.06574030015021562,0.046231005299091334,ROTATION_90_LEFT
92882,0.7613100968308746,-0.04987001938857138,0.006571195083856582,
92982,1.0223097150351852,0.19994769506603477,-0.06393909594714642,
93082,1.011469975786656,0.3308873203575611,0.13489771526753902,
93182,0.6861139860711991,0.3165979521118104,0.3675760058075189,
93282,0.45802382703907785,0.1096270073454827,-0.4874146836310625,
93382,0.061632755233533676,0.12672478407546878,-0.1330558867931366,
93482,-0.013372673525940626,0.12865209887623785,0.2914975592553615,
93582,-0.02604663333115168,0.18143873636387287,-0.3422767293781042,
93682,-0.40557694289982316,0.3733232442226261,0.5047077637374401,
93782,-0.5216147671356797,0.5098665347401052,0.48531917265653607,
93882,-0.40123613721653817,0.0688577015183866,0.14590543149411678,
93999,-0.7179398147251457,0.17322065085582433,-0.5509247405111789,
94115,-0.6890523045454174,-0.113809188400954,0.10412322229743003,
94215,-0.4911928139302879,-0.07362458712663501,-0.539186371922493,
94315,-0.6853925399288535,0.023507570707052946,-0.6291752704054117,
94415,0.055942083010985515,0.3576523219579831,0.16183832916319368,
94515,0.34526100588589903,0.37204526017606254,0.3517062365025282,
94615,0.16778901772852986,-0.07136548308823257,-0.3679483462512493,
94715,0.2160589084440842,-0.32274668399989603,0.09715455232858657,
94815,0.20756182333156464,-0.24654848352558908,0.4623790265738964,
94915,-0.11232511472250334,0.23420718060769138,0.7251701313048601,
95015,0.08658806793033146,0.10736490763239562,0.020970307314395902,
95132,0.25339414816927164,-0.38389293435811994,-0.20557634860277174,ROTATION_90_LEFT
95232,0.36311014897245913,-0.21588957975916565,-0.20968553748726843,
95332,0.9277684870101511,0.030024332189932463,0.03650573009848594,
95448,0.9106033441323786,0.15238156870566308,0.3547644550293684,
95549,0.6396450803630054,0.21903693787418305,0.26717151177227494,
95649,0.07140686997796875,0.22774967503137886,-0.2928150715947151,
95749,-0.58929750659056,0.3172385150376707,-0.13046587029993534,
95849,-0.17760905854050069,0.2572491065643728,-0.2808054848492145,
95949,-0.3720281263781711,0.47781676113717253,-0.09244096781015396,
96049,-0.26450906936367974,0.7873747316095978,-0.13643033166229723,
96149,0.28265388919487594,0.37982210472263395,-0.2823129668027162,
96249,0.1987932643339038,-0.024502719224244355,0.0964952116370201,
96349,0.2674025075165555,-0.08516556997969746,-0.20378888066411016,
96449,-0.13299188164621592,-0.15261157806925474,0.23478841456174848,
96549,-0.6793994369938969,-0.13208119654208422,0.571939471489191,
96649,-0.3504591590508818,-0.04271072221845388,-0.13822656742930411,
96749,-0.1657370901674032,0.1715975066334009,0.10801672260463237,
96849,-0.5428187370754778,0.15226576030626893,-0.4686977082014084,
96949,-0.3548153449663892,-0.18215725989677012,0.1260714347332716,
97065,-0.2814748172118328,-0.06336275736391545,-0.04613806631863117,
97165,-0.023849799140309914,0.20776764810197054,0.045616088271141046,
97265,-0.14537355310712008,-0.11870960072837769,-0.030187632992863655,
97381,0.274756578340102,-0.0011324380960315466,-0.003919219270348549,ROTATION_90_LEFT
97481,0.5614911427110433,0.15678583154659717,0.010616671082377432,
97581,0.7245183893978595,0.14767923623360693,-0.3361228829234838,
97681,0.5593337089488283,-0.018273688641563056,0.07506196298599242,
97781,0.19989521596012635,0.0836367529772222,-0.3532745087325573,
97881,-0.1373676855776459,0.020034414703771472,-0.11510112790763377,
97981,-0.059753352961409836,0.2443786286732182,-0.14369301614165306,
98081,-0.40737200962305065,0.3570880026061088,0.0981295348405838,
98181,-0.44731129436679185,0.7597732426524162,-0.1083726964354515,
98282,0.3086920012928545,0.656552083761245,0.5057680864453316,
98398,0.1737433047567494,0.12833002731502055,-0.20498773505985735,
98498,0.027056988550629466,-0.3602635639023036,0.24887539210319518,
98598,0.3994898780710995,0.09411467317603528,0.0611556027084589,
98698,0.12208280348852277,0.21414324754849076,-0.14044190539121626,
98798,-0.8122966260939836,0.10888254565373062,-0.4768225624680519,
98898,-1.1363069002889097,-0.07153503096885978,0.24703882432579993,
98998,-0.6519719163641333,0.06128273621946573,-0.20217092407345771,
99110,-0.5307183302413672,-0.015229571705311536,0.4924351421415806,
99215,-0.14074233137620612,-0.05262801285982131,-0.21022095953822134,
99315,0.029735870637372135,0.0738108669463545,0.4169645983546972,ROTATION_90_LEFT
99415,0.2178670355782844,-0.09722732530385256,-0.17510697605907916,
99515,0.5058341374188662,-0.08355265489034354,-0.07413666483461856,
99615,0.8033795985363423,0.055203416305780406,-0.06055471420586109,
99715,1.0951825704790652,0.11595577197559177,-0.023456863433122633,
99815,0.9285152137242257,0.0977218308225274,-0.18959902727007866,
99915,0.25427535145059227,0.15556231763362885,-0.4929869308054447,
100015,-0.18233108209371565,0.23068748204894363,0.08918518088459967,
100115,-0.64341320072487,0.09801401870213448,0.1805821925997734,
100215,-0.3528851440887898,0.10901574357934296,0.054472763943672176,
100315,-0.4924415718823671,0.2987718611072749,-0.4708563475400209,
100415,-0.36293289270941165,0.5346321426842361,-0.5325888733536005,
100515,0.1592278178712353,0.7633380224619061,-0.08252163134217262,
100615,0.48192335620578375,0.6333097398616373,0.3719657651990652,
100715,0.3393524759618565,0.08716799584329128,0.0027338088780641556,
100815,0.4960667766422033,-0.0614540011331439,-0.1671235760897398,
100915,0.13814973933342845,0.09099084206707775,0.08063245659470558,
101015,-0.0787524880670011,-0.08485453126914799,0.17551555685997008,
101115,-0.6388995957579463,0.19861878454983234,-0.8728501712560653,
101215,-0.9202428407456725,-0.022861674018949268,0.28652210893034935,
101320,-0.5769188673369586,0.2106243527073413,0.860435510841012,
101432,-0.32635457229875026,-0.05438216305077076,-0.27541093232929703,
101532,-0.0629616063842317,0.007521043154597282,-0.040084173107147215,ROTATION_90_LEFT
101632,-0.03148047211526427,0.021468319964408872,0.17676701822578905,
101732,-0.04298587676486931,-0.009723740830644964,-0.09747896197736262,
101832,0.6110371908422559,-0.01047799326404929,-0.16222528265416622,
101932,0.82104560360834,0.2477354282878339,-0.22405483910143373,
102032,0.9114695325076579,0.05746025532186031,0.4140121782898903,
102132,0.3568943797301501,-0.1397169521175325,-0.23908523497283457,
102232,0.0871823166295886,-0.027969153225794432,0.4019739499717951,
102332,-0.21284613867634905,-0.0211201641138643,0.045098201876878734,
102432,-0.07016878411695361,0.03693107937108725,-0.09432312829494476,
102532,-0.19578816423378884,0.4253291065961122,-0.29267537086308,
102632,-0.16874816335057838,0.7907548755671828,0.09728490070998667,
102732,-0.26732483917046335,1.0214559477500618,-0.48783144773840903,
102832,0.05748750865496695,0.5199777770509943,-0.05267945078611374,
102932,0.2072409208141267,-0.0836428173918277,-0.3385726141631603,
103032,-0.12555420592613517,-0.15099990508891642,0.4238140258580446,
103132,-0.038469632316287604,-0.0048871875196695325,0.5467699589192867,
103232,-0.35401816670671105,0.03381766005828976,0.46261692698299883,
103332,-0.31634967643916606,0.006348053852468729,-0.6787947490990162,
103448,-0.5744627794217319,-0.30440818649381396,0.012361468923091888,
103548,-0.4571316274397075,-0.13017097900658844,-0.2994534866958856,
103648,-0.09466679976661689,0.003454451302811503,0.1840419776648283,
103749,0.2621429247542284,-0.06490560289174319,0.407518724617362,ROTATION_90_LEFT
103865,0.05474105035788379,0.025778511313721535,-0.00431084893643856,
103965,0.26233271170528605,-0.08492270113453268,-0.24331132823526858,
104082,0.6765399559095502,0.005665186154842377,-0.25693770252764225,
104182,0.5427369405435398,0.2323378796044737,0.1502571969628334,
104282,0.32885793342180547,0.18504077944383024,0.3243903595536947,
104382,-0.10204833398582414,-0.17076317470110952,-0.1251607496291399,
104482,-0.026003314779233185,-0.1612253848966211,0.26258827563524245,
104582,-0.30464491785913705,0.20897052108570932,-0.31947394593954087,
104682,-0.38089419093355537,0.41733883849456904,0.3360118237644434,
104782,-0.03818774663498625,0.8097272139973938,-0.4195879325956106,
104882,0.11214581263284198,0.5595857474811374,0.31838439713716504,
104982,0.07777123107784427,0.10872885292936116,-0.626447891268134,
105082,0.42756526815034446,-0.15685670482572167,-0.7159767710238695,
105182,0.09650054539926349,-0.008467749420180916,0.09101999509632587,
105282,-0.027851481662876904,0.32266112460829316,0.04066343429982662,
105398,-0.10923241853732615,0.3043129094257951,0.03034896103441715,
105498,-0.5045415403250605,0.12894896293096245,0.34006489854753014,
105615,-0.6760487383265048,0.0029651334159076213,-0.19377718973755836,
105715,-0.29025026260800657,-0.00033449265137314795,-0.1251771162420511,
105831,-0.3286010360512882,-0.043236791919171805,-0.06239654268026352,
105932,0.09251018798830918,0.039178018047660586,0.5309510430186987,ROTATION_90_LEFT
106048,0.09727912855632602,-0.08683109203912318,0.2904968577802181,
106148,0.28626502889674155,-0.11159699224419892,-0.15426292547285556,
106248,0.9003811522603035,-0.10686718724332749,-0.20964111382365225,
106348,0.7360476452805101,0.06373064082823693,0.09932079045176505,
106448,0.6900619930446148,0.0441832059238106,-0.2744540699958801,
106548,0.40675822510626164,0.16904592245444655,0.11313304270505904,
106648,-0.10448938872870057,0.05797872623801231,-0.339863823017478,
106748,-0.022451376185007393,-0.12672646457590162,0.34173312402069567,
106848,-0.14299221092853695,0.2543856799572706,-0.21611118662059306,
106948,-0.43021490587629374,0.5628965525295585,0.23129589627087116,
107048,-0.595703537707962,0.7667923276342451,-0.5004191266328096,
107148,-0.2547650346636772,0.5486261081799865,0.187505854383111,
107248,-0.016032179625355636,0.23575294874496758,0.17704232803583145,
107348,0.35987675654180346,-0.057294104974716896,-0.5538280607372522,
107448,0.2228197808811441,0.012268310746923089,0.3330231633424759,
107565,-0.19044921435862777,0.1051524922799319,-0.055386956179141994,
107665,-0.33442572361677886,0.04186111965179443,-0.003231821528077125,
107765,-0.4839069677710533,0.2510784551054239,-0.5085071560204029,
107881,-0.3015446502888575,-0.12197137900330125,-0.15489362459182737,
107981,-0.20416763258231801,-0.23608605315685272,-0.42891982456445693,
108081,0.03766107642935822,0.017235504700243473,-0.04430149854123592,
108181,0.3577210032800212,-0.012823898803070187,-0.17472236065566538,
108281,0.44791587266381827,-0.07860862261690199,0.018399580043554305,ROTATION_90_LEFT
108381,0.6122098513508215,-0.004384133368358016,-0.24584289253950117,
108481,0.6972301311083138,0.02103022080808878,-0.09953414094150066,
108581,1.0280597299292682,0.21414880050644278,-0.08183131099045277,
108681,0.3573331364735961,0.1947638626873493,-0.15640987437367437,
108781,0.18755071643814444,0.24689335144050417,0.00916764131784439,
108881,-0.2287065008321777,0.11413286739736794,-0.3761006730467081,
108981,-0.21300847136490045,0.1076909247163683,0.44955520083606243,
109081,-0.30158140210267154,0.45904732486791905,-0.03356266238391399,
109181,-0.5367659398425371,0.41107568644657727,0.26897885345518585,
109281,-0.9722639737535268,0.584507203574106,-0.21463936050236224,
109381,-0.8344802547208965,0.4550335226492956,-0.7628595182299613,
109481,0.4343484985496849,0.32949411243349314,0.34820553490519524,
109581,0.36796551658175886,0.19775961043722926,0.07611585595309733,
109681,-0.09638981503378599,-0.17068828283399343,0.3798772689759731,
109781,-0.03798849773583934,-0.06081380353346467,-0.05129062677621841,
109881,-0.012799495014175773,-0.07084054589867592,0.10655483335852622,
109981,-0.16859140188628807,0.218631425813213,-0.8650807062983512,
110081,-0.30821627353988584,0.06569054272435605,0.41153380547761914,
110181,-0.3082172964531928,-0.010492167919874191,-0.5557973149836063,
110281,0.022359542316244915,-0.16201032472923396,-0.03791384333074092,
110381,0.1955070822700858,0.14997816082574425,0.0822217716127634,
110481,0.2070140532556921,-0.04776362169384956,0.4664087204813957,
110581,0.3654049088461324,0.03566438390351832,0.043026071777939795,ROTATION_90_LEFT
110681,0.5883954797169193,-0.08007453045099973,-0.2693675605118275,
110781,0.6449345650732516,-0.1281088588450104,0.10778408289253712,
110881,0.47996820355001835,-0.01804769786596298,-0.1606879900842905,
110981,0.24834963292973114,-0.06840447785817086,0.32985271661281584,
111081,0.295556077398546,0.03720014210343361,-0.22279051825404167,
111181,0.056213853723648934,-0.05023220376446843,0.009176993668079376,
111281,-0.4026316101629287,0.22200082918107508,-0.15504793837070463,
111381,-0.36551885408200324,0.6270652925141156,0.09041209233105182,
111498,-0.8213871835876255,0.8994920944660901,0.2665542566567659,
111615,-0.11804823247650638,0.6575427022337913,-0.7955021431595086,
111731,0.3212242236729711,-0.08218944024574011,0.31130349896550175,
111831,0.1916867202643305,0.027987309936992822,-0.7475438756763935,
111931,-0.14125680197067558,-0.15771576934047044,0.3221218300998211,
112031,-0.13570788087295368,-0.14155710009150207,-0.041679333344101906,
112131,-0.33031120097003874,-0.20297062308378516,0.3347726373583078,
112231,-0.2383916814844124,0.14081234613880514,-0.41516719354391096,
112331,0.04184595861528068,0.011482055740058422,0.5034416893243789,
112431,-0.10022011391166596,-0.05065875861346721,-0.1837929713398218,
112531,-0.35345523559432473,-0.11529621208831667,-0.022567221117019653,
112631,-0.15819083950631319,0.19248583475276826,-0.24869945101439953,
112731,0.21885389119116588,-0.009257584623619914,0.45762686361074445,ROTATION_90_LEFT
112831,0.5235800027940422,-0.013905775755643843,-0.04449789789617061,
112931,0.7862245386611669,0.09518917053975165,-0.3596557342022657,
113031,0.6498091853722929,0.042846769688278434,-0.10365268217623233,
113131,0.6488551725830882,-0.08778393578454852,0.05016892926990985,
113231,0.45530912472028284,0.3266936680600047,0.19931553464233875,
113331,-0.025069440595759076,0.5408193068865687,0.11545417912900448,
113431,0.015663739038608036,0.2225781176123768,0.29896015022099015,
113531,-0.40145942457839845,0.05035637813340872,-0.5161597166001797,
113631,-0.6137026106592267,0.41388789432309564,-0.06190437524914741,
113731,-0.5407976065114141,0.9185286572389304,0.01767477290034294,
113831,0.011562491431972011,0.6535572127941995,-0.15799392869472503,
113931,0.29575941795092076,-0.061998519806005056,-0.07649871779084205,
114031,0.38077407168522476,-0.16761008096504956,-0.6455237631380558,
114131,0.2632038502503186,0.15335691654384134,0.025298107385635375,
114231,-0.06584160510022193,0.4471405409097671,-0.054902387532591815,
114331,-0.5319243815628811,0.1274870736848563,0.27417291496694085,
114431,-0.44431006672419604,0.37459297189749774,-0.22636779221892356,
114531,-0.34643216855712233,-0.10307838941961527,0.3699596860736608,
114631,-0.27266910454155874,-0.23093787661343812,-0.3558037349492311,
114731,-0.5363863659404218,0.08010295282788574,0.2226151616871357,
114831,0.03335841764924116,-0.06048968614563346,-0.17799276062846184,
114931,-0.04586911318413913,-0.1854051557768136,-0.06744447371959686,ROTATION_90_LEFT
115031,0.28819537590481337,-0.05019727858155965,-0.10096095887422561,
115131,0.45339404834657904,-0.12035057286843656,-0.21384207264482974,
115231,0.6305626331105828,0.08672522051185369,-0.12818331232070923,
115331,0.7271771602783351,-0.07913469231761991,0.16610066278278826,
115431,0.6255279999442398,0.07126344748586416,0.1100549504339695,
115531,-0.258634788769111,0.2931816398847848,0.5537789608985185,
115631,-0.20902005931586026,0.09369031028412282,-0.29257775570750233,
115731,-0.3420945412116125,-0.08129683878757059,0.02195288861095905,
115831,-0.7116957327038049,0.335934739940241,-0.13617957177162168,
115931,-0.34182405370716,0.7568505601387471,-0.8104711642324924,
116031,0.09445785145736299,0.5192891006670892,-0.26876082679033275,
116131,0.485330242039822,0.28940288853105156,0.2070376533269882,
116231,0.3855709140403196,-0.2047219602631405,-0.8277291730254888,
116331,0.15875265637384728,-0.16641455103754996,-0.08599719849824905,
116431,-0.028891442002751865,0.20181334280744193,-0.07404255681037902,
116531,-0.534547861934267,0.3313800723105669,0.040754619714617725,
116631,-0.3276525031547993,0.30036570616997776,-0.08590484403967857,
116731,-0.602924319274351,0.03360606313422322,0.08308511044383049,
116831,-0.19975027279779314,-0.13608911700919268,-0.5811930375248193,
116931,-0.11158024203879759,-0.15443514023460447,0.2856055786073208,
117031,-0.11623657994465902,0.11363478168211877,0.010546528455615043,
117147,-0.10717787889400496,-0.09531031270138919,0.413816947978735,
117248,0.1534341099658981,-0.03467303477860987,0.2495715576738119,ROTATION_90_LEFT
117348,0.38706239470709114,0.028452114437147975,-0.22309446963667867,
117448,0.7038544446188956,0.039692105049639936,-0.14779051458835601,
117548,0.680018445675075,0.1369607122119516,0.0042418753534555435,
117648,0.719812111403048,-0.10248363839685916,-0.08413958793282508,
117748,0.2798945440167561,0.0026548253577202557,0.23075579804480076,
117848,-0.1787230111317709,-0.02920326159801334,-0.09068155692219734,
117948,-0.27275360448723657,0.03960263666789979,0.0590291120737791,
118048,-0.24129807045040652,0.3224696206241846,0.2437462125211954,
118148,-0.516078760318458,0.4307784580431878,0.143721073192358,
118248,-0.741733070505783,0.5017518730739131,-0.3813941032797098,
118348,0.0206513227594085,0.4522176249783486,0.05051964240372181,
118448,0.346873920975253,0.34448698930609967,-0.40969548413455487,
118548,0.19801676353607325,-0.19142470832727848,-0.5560913294941187,
118648,0.10656822256306185,0.10589936512447894,0.4066910416215658,
118748,-0.5207133978491649,0.1883276190947741,0.09768646724820136,
118848,-0.24420701669966802,-0.022264877169579266,0.5691127236306667,
118948,-0.33585301647353916,-0.12636523004807532,-0.21764088040590285,
119048,-0.3030482232522219,-0.2085544876307249,0.09437924239635467,
119164,-0.032991018242109565,-0.039731121885776516,-0.6307178236722946,
119264,0.11572994559677317,0.05873597434610128,-0.1855710869282484,
119365,-0.02408943484877236,-0.12431699228137731,0.6724772365152836,ROTATION_90_LEFT
119481,0.014825119090266525,0.06652808952704072,0.1668318996667862,
119581,0.09580516527993604,0.09862111774981021,0.010030980148911475,
119681,0.3523840261662379,-0.11477788730263709,-0.3009194675952196,
119781,0.7586380280774087,-0.12687741735391317,-0.20398528001904487,
119881,0.6561545358110219,0.05537848061174154,-0.0746317548751831,
119981,0.26845274722184986,0.14984825083576142,0.20765023226737975,
120081,0.07169329027049243,0.117928533353284,-0.12704174107015132,
120197,-0.12489495656611398,-0.10317753894515334,0.2059007582515478,
120297,-0.43965106193721293,0.03111625561248511,0.09323182592689991,
120397,-0.5622049900688231,0.19389445944167671,0.32942017041444777,
120498,-0.7975585642326622,0.3996136140486225,-0.11576105312108993,
120614,-0.3734629814868793,0.5054477319171652,-0.5824211180150508,
120714,0.5675016717048361,0.2985303805015981,0.5103992533773184,
120814,0.11711396556738764,0.1565835139075294,0.04559387643933296,
120914,0.11550927031710743,-0.22627536469511686,-0.5477174689024686,
121014,-0.28002175059299916,-0.1712564381107688,0.45097734259366984,
121114,-0.21646237467844037,0.09597053017579019,0.08149462638199328,
121214,-0.09949269468626007,0.13139080312512813,-0.372439812451601,
121314,-0.14893055146895348,0.24705431415587661,-0.33420974277853965,
121414,-0.21836208908623084,0.08988120032474398,0.058358080944418904,
121514,-0.14341267396346666,-0.1386085524842143,-0.245348971542716,
121614,-0.1767213159205392,-0.024315599154308438,-0.21248773542642593,
121714,-0.045502722990582695,-0.05840308912992477,0.36310850500464437,
121814,0.33516013883855195,-0.012893237712234258,0.07995207311511039,ROTATION_90_LEFT
121931,0.5857376221518963,-0.15373988797944038,-0.44476972012519833,
122047,0.8589735485296696,-0.26292612928748127,-0.11893968315720557,
122147,0.6824655465662479,0.16432517754286527,-0.3738923493474722,
122247,0.3144645568123087,0.18259382468312976,-0.06913140389323234,
122347,0.05484773473590612,0.41071036026552316,0.161093648275733,
122447,-0.3460093035025522,0.35582886939048763,-0.05528349580466747,
122547,-0.1222045667046681,-0.04381294783931225,-0.09531097028851508,
122647,-0.3330774508129805,0.2364956568710506,-0.3738999481320381,
122747,-0.5415979631088673,0.6311816417917608,0.22911679866611956,
122847,-0.20118584029255435,0.9119225369721651,-0.038249943417310715,
122947,0.017978148894244803,0.5937491522371768,-0.6589186667621135,
123047,0.08115686406129971,0.048008390235155816,0.28561083930432796,
123147,0.28935028156097975,0.040158626582846045,-0.4015606929957866,
123247,-0.0705975217898842,0.01903919312134385,0.12409984239935874,
123347,-0.2987191445393488,-0.11075929931104182,0.04988602067530155,
123447,-0.19356098970361052,-0.23553083042688666,0.4621358654677868,
123547,-0.3260859479578212,0.22416699423901734,-0.3112497229516506,
123647,-0.4889936233855784,-0.08567571145892143,0.0894371098190546,
123747,-0.36361331272162495,-0.08041801012642681,-0.26975392948091026,
123847,0.07066305217361077,0.08342033374756574,0.08254618126153945,
123947,-0.05644958957512863,-0.05650573107600212,0.23168752593696115,ROTATION_90_LEFT
124047,0.2152966188346967,-0.1757147326938808,-0.02836217113137245,
124148,0.3650691375531256,-0.09126827076897025,-0.02983224368393421,
124264,0.6394757151454686,-0.17046426481977103,-0.025336101308465003,
124364,0.6893745953023434,-0.09650558690056205,-0.08614391349256038,
124464,0.6225071177531033,0.15528839606307446,0.00003039513826370239,
124564,0.3918626711282879,0.22845519295223055,0.18570552696287632,
124664,-0.06125266987476498,0.3322618966463953,-0.22470015126764772,
124764,-0.3003984028631821,-0.03466441308073699,0.12641747169196604,
124864,-0.37008831742201,-0.22991098125111312,0.25677929709553715,
124964,-0.16637045616749674,0.005891651854477822,-0.11256021125316619,
125064,-0.3061641267830506,0.3738040500095114,-0.07078326275348663,
125164,-0.15276466800542549,0.6544727932691574,-0.6622212154388427,
125264,0.09672724856091662,0.2587146125396714,-0.1841238107293844,
125381,0.10453433298212475,0.4595296284921467,0.314566884675622,
125496,0.3867917976047843,0.1352365187678486,-0.9862707987308501,
125596,-0.03145809132009744,-0.24341511740330604,0.7062076566815376,
125696,0.4046711531665176,0.13539149013385177,-0.2989016980320215,
125797,0.15360363958021625,0.42561252664737403,-0.41464463097453114,
125897,-0.6029500747701153,0.3681138390112668,0.39120939485132694,
125997,-0.7609465972807258,-0.029206074609607457,0.11340016920864582,
126097,-0.7339419051729142,-0.08653861189857125,-0.07679857752025127,
126197,-0.2516029904361814,0.09345109470076858,-0.06833411603569985,
126306,-0.35922713352665303,0.0012946429204195736,0.8875508967816829,
126414,0.1162406989973504,-0.14890950868092476,-0.3432341762334108,
126514,0.4287671182207763,-0.07003441714756191,0.14254150801897048,ROTATION_90_LEFT
126614,0.5575085758809,-0.022780644671991465,0.015936989322304723,
126714,0.7591165323093533,-0.04406944335103035,-0.41326808192431924,
126814,0.6874483034148812,0.09078019499108195,0.10935995390713214,
126914,0.2664794561211951,0.08972367167547345,-0.08303425703942775,
127014,-0.0283817343483679,0.007683905566111207,0.21497370702326296,
127114,0.0271348760924302,0.2530326579131186,-0.15053367581665514,
127214,-0.23738758247578515,-0.13783800650313496,0.10139175150692463,
127314,-0.19628630474796518,-0.021460721179842948,-0.2544207512706518,
127414,-0.3711145551972091,0.1928046549109742,-0.2717138313770294,
127514,-0.3864307822726667,0.7378503838535397,-0.32375323069393636,
127614,0.01426426120395772,0.6602275574035942,0.06321604236960411,
127714,-0.08815372807816602,0.5045492852400988,0.4567413129478693,
127814,0.3710445587009191,0.21882906727716325,-0.45815994757413864,
127914,0.042586675713676955,-0.2774708605337888,-0.06432488039433956,
128014,-0.32577585909534246,-0.21294815601240843,-0.024507833790779112,
128114,-0.4220999519491568,0.06743519443459808,-0.18524492371380327,
128214,-0.41153245377074926,0.15814122821092605,0.0009480945050716399,
128314,-0.207789987797942,0.04883760760091245,0.2993248918801546,
128414,-0.2772131229130551,0.009403276704624295,0.020715455770492552,
128514,-0.0009193250683136284,-0.16366510619893668,0.178809337708354,
128614,0.15908671063380314,-0.12235073370970785,-0.09363865316212176,
128714,-0.19255068014990537,-0.10217457244768738,-0.370796721419692,
128814,0.053882205038843674,0.030205387845262884,0.7042997772336006,ROTATION_90_LEFT
128914,0.4722169683687389,0.012751929545402526,0.04937631758749485,
129030,0.8577981480747461,0.006165025435760617,-0.06226560977697372,
129130,0.7361950909271836,0.14866094074733555,-0.08731880249083042,
129230,0.15011272872453554,0.21859891178309915,0.29618191767930985,
129330,-0.157469210700877,0.3036125060714781,0.13308686645329,
129430,-0.11648715717224403,0.18523330634124577,-0.1703331857860088,
129530,-0.33245785760991275,-0.10513323959019034,-0.054173488736152645,
129630,-0.5993063479728996,0.30388266478236764,-0.2162228303015232,
129730,-0.47023883669618516,0.580877213041298,0.011342062747478484,
129830,-0.1297463421200402,0.6285752586856485,-0.7710182747662067,
129930,0.4138588143590837,0.32002887640856204,0.589632949090004,
130030,0.5033646420327946,0.21773345406018196,-0.4283458240687847,
130130,0.10521497219004668,-0.482785014536418,0.23440087654888628,
130230,0.16735837122630326,-0.2107075009461492,-0.003249357184767723,
130330,-0.22297082499070092,0.051237800610437985,0.4718564644932747,
130430,-0.2911319042807445,0.46359315160401166,-1.004546460133791,
130530,-0.6345998527374118,0.09044438716545701,0.6973176632612943,
130630,-0.4630622961303219,0.17993987610824405,-0.3510124090194702,
130730,-0.35520229845736173,-0.076343088837713,-0.11314297957718372,
130830,-0.38081407490205016,-0.04710325808897614,-0.3333393896847963,
130930,-0.042890992422495035,-0.1181844078104943,-0.29824586447179313,
131030,-0.0343667453084141,-0.1776051495503634,0.15375439142882824,ROTATION_90_LEFT
131130,0.3356703533830121,-0.1634499290782958,-0.16977788999080656,
131230,0.5079134279109537,-0.2250348631147295,-0.181959326171875,
131330,0.798677558325231,0.01814962387047708,0.005531915163993835,
131430,0.9657156480886041,0.14587883574813604,0.01215571721792221,
131530,0.5715843013759702,0.09795520118698477,-0.2164449486196041,
131630,0.19996661896221338,0.1467453894495964,0.15305121159553528,
131730,-0.13069328584764153,0.3281349894421175,0.10665244851410388,
131830,-0.28965883605349807,0.14691161286197602,-0.06397825891375541,
131930,-0.1280447806328535,0.07280260321926325,-0.23150983128249644,
132030,-0.25084910332895816,0.30345939786899834,0.0029682021558284756,
132130,-0.3867946106163785,0.3853654911287129,0.29955870063602924,
132230,-0.09417064114697277,0.4918311848990619,-0.004602525359392166,
132330,0.19733281812621278,0.4238875294856727,-0.24095453597605226,
132430,0.16923833975400776,0.1045112352343276,0.344854470911622,
132530,0.16701196894142775,0.1366973485680297,-0.5543582220911979,
132630,0.09547602465711534,0.029984986560232935,-0.14257248767912387,
132730,-0.28257362703289834,-0.0667628481309861,0.42976445869505403,
132830,-0.27003143124803897,0.3482376470765099,-0.3705243342190981,
132930,-0.45821266414206474,0.12342362363822758,0.4238613721311092,
133030,-0.4292193920329213,0.1847428194105625,-0.19586977810263634,
133130,-0.33585663320273157,-0.13868928957022725,0.0504068296790123,
133230,-0.15281875454653054,-0.004013692620769143,-0.21196049668192862,
133330,-0.40639717324152586,0.023899200373142956,-0.15151041189432143,
133430,-0.09035152125023305,-0.058028337533399456,0.24863398456275462,ROTATION_90_LEFT
133530,0.2915245020612143,-0.034052418662235136,0.04801321254074573,
133630,0.44653742391746487,-0.1389731480129063,-0.020904256340861318,
133730,0.8760465561445802,-0.03890840732604265,-0.1583271061718464,
133830,0.6830364783219993,-0.27082930362746116,0.08613689922988414,
133930,0.988931396242231,0.27828809520080683,-0.35050036784410477,
134030,0.45090983031541104,0.12341748615838587,0.15901567295789718,
134130,-0.2674714263006113,0.23377251551747322,-0.12559037321805952,
134230,-0.5852373810121789,0.4478649827267974,-0.061708560416102405,
134330,-0.5140990577433258,0.16430720349475741,0.3970294793069362,
134430,0.33230350729841734,0.12753120508752763,-0.20796996574103832,
134530,-0.6325592137552798,0.24808694513924417,-0.6592378157138824,
134630,-0.03232493728250265,0.6235274737767875,-0.09839256969094276,
134730,0.4192018558874726,0.39550058923922476,0.6846633488714695,
134830,0.13790312589490786,0.3539545268859714,-0.4566793536275625,
134930,0.25665225491607563,-0.3393473979279399,0.3317670258015394,
135030,0.1022189047797583,-0.1566818962480873,-0.5536684862613678,
135130,-0.17245289962003008,0.10064392881430685,0.1995657100111246,
135230,-0.26008968201884997,0.3684716394729912,-0.11093816300928593,
135330,-0.3111654787342995,0.35346111734583974,0.35258185029327865,
135447,-0.9893043942730874,0.17216076653935014,-0.7846651073247194,
135547,-0.46276495715156196,0.06856690187826753,0.1242325288683176,
135647,-0.43883645761869844,-0.07551394453719258,0.336519773286581,ROTATION_90_LEFT
135747,0.39939021708890793,0.08683174962624907,0.2985346182852983,
135847,0.6717733260296285,0.0032832594543695448,0.09441372918784618,
135947,0.5052140327591449,-0.086828607821092,-0.1264899524062872,
136047,0.39126295166946945,0.021941563499346374,0.14126666577756403,
136147,0.2675885316079482,-0.08937325080260634,0.12034078212678431,
136247,0.0016330080293118952,0.11021057938709855,-0.21404139460921287,
136347,-0.2306757916111499,-0.09193948456142097,0.03534253153800964,
136447,-0.3847427926531061,-0.2510629287427291,0.08153729647994042,
136547,-0.3232015150953084,-0.10306688164491205,0.16620587672293186,
136647,-0.20957988515570758,0.13753171703293918,0.18131576757133006,
136747,-0.1206727540275082,0.2237819404441863,-0.0699696082830429,
136863,-0.0037945791105274108,0.5370609042011201,-0.22236381727457044,
136963,0.2519044028018601,0.40896158036943525,-0.005147884282469749,
137063,0.23474349770778788,0.149909442971088,-0.18510873011350631,
137163,-0.49661546003352847,-0.7669567974809557,0.8968845423161983,
137263,-0.04508078038461972,0.27730920369867235,-1.2443763759940862,
137363,0.08046398642631247,0.44473216459378595,0.36366672340929507,
137463,-0.3612156039301306,0.43033513472247864,-0.1525923619121313,
137563,-0.5177994831638411,-0.023748649453930556,0.3582622340172529,
137663,-0.6371473452631383,-0.060754657224752005,-0.39747897664010523,
137763,-0.17076562238652257,-0.15152951845359056,-0.0015682722300291061,
137863,0.05012699895747937,-0.10547481956947594,-0.2678676773428917,
137966,0.06829879356056917,0.044530265795812006,1.338038994553685,
138080,0.2247439538767561,-0.035955475804582235,0.13836919077038765,
138180,0.697003921137005,-0.2544013159178197,0.19481997678875923,ROTATION_90_LEFT
138280,0.9971065193913876,-0.2956870468344539,-0.47822716856896874,
138380,0.5735272886699065,0.02408054828941822,-0.20470891811847686,
138480,0.22020099495118484,0.11368731558695434,-0.3196995713889599,
138580,-0.09789042885508388,0.2037972831662744,0.20202946977615355,
138680,-0.3605422347132116,0.30936347081363197,-0.21665128484666346,
138780,-0.12399952383004129,0.05353102611415088,0.5698959829628467,
138880,-0.10280252248714677,0.2545375825833529,-0.5452940411478281,
138980,-0.20471688222922382,0.3777918775366619,-0.053795887595415114,
139080,-0.32295429886858906,0.8587157743763179,-0.6572083557128906,
139180,-0.0344788776131114,0.5900373286398127,0.055335518252849575,
139280,0.13302187492568046,0.14392660570181906,0.04268646456003189,
139397,0.3385303824566305,-0.12518931813649833,0.4813233810186386,
139512,-0.10763623538706452,-0.0188714353390038,-0.12407061630487441,
139612,-0.2670852582609281,0.010557342110574245,-0.3176543292969465,
139713,-0.49934685775879767,0.021941052042692897,0.34350539439022537,
139813,-0.7396415781192481,0.19581439465358852,0.05565174459517002,
139913,-0.3933492564242333,-0.018641060649231076,0.14224164828956126,
140013,-0.060382335047330704,-0.05049991478994489,-0.13635609738230706,
140113,-0.08168861458413303,-0.08223046637587249,-0.5140846638917923,
140214,-0.0380770345358178,-0.091053312844038,0.5080120659798384,ROTATION_90_LEFT
140330,-0.11976264431211166,-0.09856551510505378,0.10099486114382743,
140430,-0.05451110492637381,-0.11477978699877857,-0.22459435280561446,
140530,0.34254188312031325,-0.08982183482032269,-0.027219430837035177,
140630,0.9095512047309428,-0.04904503980651498,0.288967748516798,
140730,1.2952778573222457,0.07384221193268894,-0.006146832191944122,
140830,0.9402475909635424,0.17805501220971345,-0.3788403271436691,
140930,0.357167461050488,0.12564586626496166,-0.06817278799414635,
141030,-0.039728619401436294,0.25797197747882455,-0.26995266692340375,
141130,-0.4320075614467263,0.13076631455123425,0.2913607811331749,
141230,-0.2365403727956116,0.19806615563575178,-0.005823591586947441,
141330,-0.30614297439716753,0.18825685541350393,-0.19188567690253255,
141430,-0.3220100402884185,0.5639868319842964,0.23249007449150083,
141530,-0.08266434601480141,0.7708940638646483,-0.28995091433525083,
141630,0.04527629839014262,0.5309214515980333,-0.16466449249982834,
141730,0.04421093418095261,0.10727439807103946,0.4480786985427141,
141830,0.1769286385282874,0.2221490968116559,-0.6663590458959341,
141930,0.1513765563815832,0.09271892623500898,-0.17567805394530295,
142030,0.013942755898321047,0.014293880024086682,0.298242357340455,
142130,-0.0008590097158215939,0.14485336515791714,-0.3770505211174488,
142230,-0.06603453385643661,0.10956722171595319,0.07571487393677234,
142330,-0.2592421070124954,0.10589012237209826,-0.42653965142965317,
142430,-0.3013827194591053,0.008170337376184762,0.20698621540069578,
142530,-0.2798567144907079,0.06093969493545592,-0.2850672339469194,
142646,-0.25562552395053206,0.22727365501746533,0.25763503714203834,
142746,-0.010837346362043171,-0.027836101430654524,0.014822890600562095,
142846,0.30453460761876777,-0.02449059039503336,0.056153848898410796,ROTATION_90_LEFT
142946,0.8888992426507174,-0.0034409342341125007,-0.09862228679358959,
143046,0.7950866942264139,0.039375549913756545,-0.2867588402956724,
143146,0.4565728975784033,-0.014401450318098067,-0.006091302612423896,
143246,0.017348244359716773,0.0526191354336217,0.12229717689156532,
143346,0.10269746381063014,0.2114993819762021,0.22943010239899156,
143446,-0.04781257540211081,0.24935104679092762,-0.3506652030169964,
143546,-0.12051703374283387,0.2574112383235246,-0.00497486580312252,
143646,-0.3290905366012826,0.4190612418403849,0.45463761866688723,
143746,-0.332614947867766,0.9336777841191738,-0.1343622932165861,
143846,-0.18163838712181896,0.4568156933583319,0.1999094088822603,
143946,0.05918238467304036,-0.04709147631963715,-0.05432838703691959,
144046,-0.009054983856761827,-0.2902109900435433,-0.9612848260343074,
144146,-0.2135677492154762,-0.252396844227612,0.3617395547389984,
144246,-0.26587884161323305,-0.026067265127226708,-0.004013911816477775,
144346,-0.05529082972775213,0.2475576971007511,0.1940460698068142,
144446,-0.23150367553634568,0.0927694325795397,-0.053720484271645545,
144546,-0.6137161277279257,0.04650123707521706,0.09687690443098544,
144646,-0.34729627457316964,0.11513561469912528,0.09270692526996135,
144746,0.016019352109823377,-0.1400403753856197,-0.49031332768201824,
144846,-0.1388495216332376,-0.0002533171739429235,0.1454553496390581,
144951,-0.27323724155202506,0.14667064371295271,1.301410514858365,
145063,0.03225402747076005,-0.019246625326946376,0.07244096683263779,
145163,0.28772372153876347,-0.24880616279188542,-0.28274726656675336,ROTATION_90_LEFT
145263,0.6945603273771703,-0.10824749915320425,-0.14824644166231155,
145363,1.1041308699578045,-0.075655837225914,0.013884732967615127,
145480,0.9599646833464502,-0.0014792057070881128,0.005976736322045326,
145580,0.2559081402841955,0.11126114788595587,0.09621288756430149,
145680,-0.2751476965495385,0.25737024872601033,-0.4882733462870121,
145780,-0.12498020543046295,0.22879549428988247,-0.27833003464639183,
145880,-0.24958153107855469,0.07415167974065989,-0.11332944205999373,
145980,-0.6544659982021898,-0.0026431714525446295,-0.4735404720574617,
146080,-0.3779734446486458,0.16747684650681913,0.4144675208419561,
146180,-0.09104304717835038,0.9214797621294856,-0.6298749431073665,
146280,0.33405922839194535,0.6517111465360969,0.9925842196613549,
146380,0.0982466766805388,0.5271836898418143,-0.6470195546537637,
146480,0.0497047458242625,-0.0032306342179886996,-0.07518763519227505,
146580,0.2506524847783148,-0.07102098049949854,-0.33109774823784827,
146680,-0.4179076513584703,0.05075089387632906,-0.00040448914766311644,
146780,-0.42016536715738473,-0.2907389959730208,-0.25645138031542297,
146880,-0.3307389248628169,0.08083835443034768,-0.22508652023673056,
146980,-0.49656438743341713,0.2032294201504439,0.5853466500729322,
147080,-0.2658453412024304,0.2885800643734634,-0.2521983990460634,
147180,-0.22332663442473857,-0.06927629225663841,0.25739304507970806,
147296,0.2344138821609318,-0.11886113802827894,-0.0435223308622837,
147396,-0.09346230108137242,-0.06903788039088249,-0.5840858363568783,
147496,0.2809406372698955,-0.01177212472781539,0.22147125234901904,ROTATION_90_LEFT
147596,0.6560080400124192,0.04119885635077953,0.24943828668296336,
147696,0.8909580018114298,0.005045519886538386,-0.07982464734315872,
147813,0.6196871649615466,0.03872472132220864,-0.16064765807390213,
147913,0.13228159621870145,0.09175868463441729,-0.038379122754931445,
148013,-0.2897053786089644,0.22536804059185087,0.07001520099043845,
148113,-0.43798787796534594,0.21832338277734814,-0.10761281797885894,
148213,-0.2695092705374583,-0.12294789588525891,-0.2689344297915697,
148313,-0.20115206588711587,0.08522033237423747,-0.11905074231624603,
148413,-0.20902603239892048,0.5348755960512906,-0.27831191446781156,
148513,-0.28491598890796305,0.7726783169329166,-0.08445815236270428,
148613,0.009460103192087262,0.31157807812318206,-0.150754040569067,
148713,-0.053346353729628024,-0.011755904245376586,0.000377016618847847,
148813,-0.326580088150315,-0.36160438405200834,-0.21575930444300173,
148913,-0.04072156682838685,-0.2568645642261952,-0.4868804306238889,
149013,0.0725191420688061,0.047854807108640665,0.2802753234952688,
149113,0.0510687824527733,0.18833543707504868,0.1604693788975477,
149213,0.19096479919794945,0.27724779236763714,-0.0037584757506847377,
149313,-0.27431018627947196,0.10123656094521284,0.20238193647563457,
149413,-0.2303701231954619,-0.19518121131658553,-0.1636807421594858,
149513,-0.1587599811637774,-0.26648221433386204,-0.2521989835679531,
149613,-0.11863889184603467,-0.12063581955060362,0.18541443506181238,
149713,-0.1890548191244714,0.00003660568334162235,-0.1660211678057909,
149813,0.07649051621807738,0.1592918595507741,-0.1820814912468195,
149913,0.45980946834683417,-0.030942908339574932,0.31950843273103235,ROTATION_90_LEFT
150029,0.7800993337791413,-0.08528726013060658,-0.44070086325109004,
150129,0.8697250980380922,0.0689299995696172,-0.030848142728209495,
150229,0.8190170203901826,0.19897939802315084,-0.04087970739901066,
150329,0.3848666747611016,0.21954875985383987,-0.1523527079373598,
150429,-0.00028131942572072146,0.3594432604953646,0.18739070357084273,
150529,-0.17151697047678752,0.3983733681965619,-0.07421206815838813,
150629,-0.324513839802891,0.11140534212961792,0.2618237210035324,
150729,-0.4034179382350295,0.18330127883274108,-0.3687462186306715,
150829,-0.48207259195074437,0.33250516735035923,-0.08289514082968234,
150929,-0.5147875514641403,0.7240195730302482,-0.5040519301772117,
151029,-0.02372572523606941,0.6190306007489562,-0.06620820992290974,
151129,-0.10721472203936427,0.1545589127447456,0.6034206514239311,
151229,0.09249753856929019,0.006243132173269987,-0.06477028607428073,
151329,0.058771648447681214,-0.12325608505159616,-0.4060726174622774,
151429,0.17706178165497258,-0.16535868530906736,0.045810149538516996,
151529,0.021239771905541417,0.0861433289706707,-0.022594109123945234,
151629,-0.4353013422951102,0.29518764594495295,0.014638766205310821,
151730,-0.14636481090048328,0.04566818378455936,0.1301443832606077,
151846,-0.3740547003023326,-0.21702435594275593,0.0751852971047163,
151962,-0.3247462237866595,-0.009578925532475113,0.13952011437118053,
152063,-0.13987973233065568,-0.20381021571308372,0.23811142150461673,
152163,-0.17913139100326225,-0.20580036661699413,-0.2665419816970825,
152263,-0.2621376457909122,-0.08419716333895921,-0.29375439827144145,
152379,0.08440799307804554,0.1522878990728408,0.026371289575099943,
152479,0.19678782452931626,-0.23577998288236557,0.20255086330175398,ROTATION_90_LEFT
152579,0.3785202283438295,-0.24923914738167074,-0.18786065917015074,
152679,0.7106145864035934,-0.09934804378487169,-0.18820844969451425,
152779,0.8338273437701165,0.06469499234836548,0.10933365042209625,
152879,0.593623735759221,0.031791378395073115,0.10781681611835955,
152979,0.28829766723550854,0.11729918594118206,-0.08665478562414645,
153079,0.11914669523769988,0.19391301801167427,0.2505114688724279,
153179,-0.26269776389170435,0.06770191907938569,-0.00025718963146209714,
153296,-0.35258619767483323,0.1650063099411316,-0.16132044276893137,
153413,-0.3208501296635717,0.3237311649926007,0.05362403815984726,
153529,-0.11343025381965562,0.875351267356798,-0.5420224721312522,
153645,0.5557396299796179,0.5273016901982948,0.7694576013207435,
153745,0.509679305072315,0.15758728412259368,-0.4870288991838693,
153845,-0.5815533222045749,-0.28782252400442954,-1.2327701093524694,
153945,-0.21045334352198988,-0.16110581363756207,0.4344043934553861,
154046,-0.3004598324605264,-0.006034311728179455,0.13449497968554497,
154163,-0.6820528741121292,0.09134316263608634,-0.1224286943167448,
154279,0.0030578714669682082,0.060597092042863364,-0.014307342293858527,
154379,0.05784541871454566,0.07856164167001843,0.16788754619956014,
154479,-0.3073817224118858,0.08668130830489099,0.33767361949682234,
154579,-0.321640768584609,-0.017976386195421218,0.22783903381526469,
154691,-0.5635855577070266,-0.07892280313260853,0.7924030081003904,
154796,-0.14280236004539765,-0.010144304330274462,-0.45979251721203324,
154899,0.09880407310128211,-0.1341704969715327,0.4368669841766357,
155012,0.5662267929308116,-0.19751911621224133,-0.023482582396268843,ROTATION_90_LEFT
155113,1.010516839780286,-0.15803477216176687,0.02051788737177849,
155229,1.1380674802206456,-0.1254983110204339,-0.14931611672043799,
155329,0.6037533905096352,0.0464778196670115,-0.4169651828765869,
155429,0.192145752610825,0.17351430004015564,0.16316110219955443,
155546,-0.20586168661648407,0.4736030158996582,-0.02427402503490448,
155646,-0.22957981306798755,0.3782828393913805,0.22922318165004252,
155746,-0.33486404196880754,0.016884426240250466,0.22292203567922114,
155846,-0.06811972436634824,0.12637344988714902,-0.1924503250479698,
155946,-0.24186354057975112,0.5967854146605357,-0.15399170731604098,
156046,-0.25816983813848343,0.8336701073817908,-0.4275011899381876,
156146,-0.10078358388016931,0.3653162807146087,-0.11224106230139731,
156246,-0.17262984535582362,-0.06019402766730636,-0.17154256157577036,
156346,0.1444815453039948,-0.18815445448495446,-0.3603957389146089,
156462,-0.044440569085208693,0.033269743851944804,0.6012994214862585,
156563,0.05359479379905387,0.18942768929116427,0.3396113095611334,
156679,-0.20498199943881482,0.005991787760704755,-0.014586159235239027,
156779,-0.5013733220851049,0.08281067741662264,-0.034167642539739605,
156879,-0.46509712642617523,0.026646599385142324,-0.45541737086772915,
156979,-0.08627919377740471,-0.010392726133391261,0.24581892714202402,
157079,0.066572549723275,0.12484971091859041,0.18936404947042465,
157179,-0.19349702108930794,0.04348338709138334,0.007800444617867469,
157279,-0.3941240036563948,-0.18730982035435734,0.10039981786012649,
157382,-0.3447476495362818,0.00036949089951813217,0.15840250949561596,
157496,-0.012586710780020802,0.00419189873188734,-0.17057985402345657,
157596,0.534891670403257,-0.022324060010910033,0.10282850631177425,ROTATION_90_LEFT
157696,0.8638713305085897,-0.09259166485983877,0.18556465718746185,
157796,0.8856400216590613,-0.12056969551183283,0.011032266145944594,
157896,0.4076812217026949,-0.11905245934929698,-0.4673018699288368,
157996,0.2755921341150999,0.07591803182605654,-0.5607832867026329,
158096,0.1264698959989473,0.4066911877520382,0.05513502724468708,
158196,-0.38082613066602494,0.41934952072985465,0.451881597957015,
158296,-0.7124640867277979,0.20212978834547102,0.4162409602552652,
158396,-0.6411930404573679,-0.06195661689303815,-0.0464198058694601,
158496,-0.709776455079019,-0.21678809950146824,-0.4152636396557092,
158596,-0.6859456437669694,0.035116796490736304,-0.22067805614471434,
158696,-0.3724352093417197,0.23856318386010825,0.5015419931828975,
158796,0.43424401526190337,0.15320705974437296,-0.1682043570637703,
158896,0.6396566246703267,-0.18015205755420027,0.1909779144078493,
158996,0.5013510371880605,-0.01669803682267666,-1.4098539384424686,
159096,0.30042916332762687,-0.1545082785360515,0.4827373394697904,
159196,-0.04914242663322948,0.1940085142754018,0.7506383345603942,
159296,0.0904158277912531,0.3575056434962898,-0.23180384579300878,
159396,-0.12337158292373641,0.041864626783132554,0.05035246914327144,
159496,0.03692890568030998,-0.09433226144947111,-0.26357027240991593,
159596,-0.4604550362413749,-0.3436677453450858,-0.3059182987958193,
159696,-0.31850126498248427,-0.12426716179028152,-0.1443880126684904,
159796,-0.04963018275070935,0.19146409048959612,0.5081453369706869,
159896,-0.080140645356616,0.07494476634711027,0.07620353423655032,
159996,-0.11827941088387742,0.009122048610448836,-0.468991138190031,
160096,-0.31145883565768595,0.143923463896662,0.05389934796988964,
160196,-0.25381540578864514,0.0972100088428706,0.19471242476105688,
160296,-0.20213128618281334,-0.1132595916941762,-0.1542868908703327,
160412,-0.09307406894876621,-0.1240462855812162,-0.25232757838368414,
160512,0.10347127032787538,-0.029490955965593455,0.2933089925915003,
160612,-0.10659989634295924,-0.09532609479241072,0.3376806337594986,
160712,0.5166118442818523,-0.3113623895458877,-0.4511591289013624,
160812,0.946679085315764,-0.25531163569577037,-0.2254384024143219,ROTATION_90_LEFT
160912,1.219613471463695,0.019225071082264185,0.28403438376784323,
161012,0.8563784905351698,0.19180040977187454,-0.34463878233432765,
161112,0.1996490591793321,0.3543187570884824,-0.0540577534019947,
161212,-0.2813457474720664,0.4406981598373502,0.03032031946182251,
161312,-0.36311862453985955,0.37220973002277313,0.1397872408747673,
161412,-0.2535779255046509,0.3070699530489743,0.04439093039035797,
161512,-0.3310709332961589,0.576111496476829,-0.33867081384062764,
161612,-0.27897112729521467,0.7563841847360133,0.3848451205164194,
161712,-0.061696723847836255,0.8420682256318628,-0.27678397424817086,
161812,0.07828611266426741,0.2694496493047103,-0.3829237970650196,
161912,0.04106497800515499,-0.3061890420285985,0.026648352950811385,
162012,0.010187937976024113,-0.30849962052591146,-0.34944939748644827,
162112,0.09933977828002534,-0.1306775402892381,0.04867956749498844,
162212,-0.3419095400335267,-0.2144534825414419,0.036192426365613935,
162312,-0.4687579139560461,0.29114655386060473,-0.10069909306764602,
162412,-0.62497979147695,0.09041706076711416,1.0804454584658145,
162512,-0.5662200709290802,0.17110300111472607,-0.6068196462124585,
162612,-0.4472963890586048,-0.13898885703869163,0.25574703143835065,
162712,-0.1594759656797163,-0.27013036157786846,-0.465889665043354,
162812,-0.08594497512066736,-0.1097235995877534,-0.014751578930020331,
162912,0.07187779825823382,-0.07499174729399383,-0.2852045965909958,
163012,0.024314905034564432,-0.09683628015965223,0.4740870000243187,
163112,0.12091058137137442,0.05882715976089239,-0.2692553323090076,
163212,0.049647133885510265,0.16569478539563715,0.5081652107149363,
163312,0.16973207808770238,-0.08035400497950614,-0.23257599920928476,
163412,0.6352331822048872,-0.17921079464871437,-0.2591618083178997,ROTATION_90_LEFT
163512,0.9914123994030057,-0.019795710577070712,-0.3592810556709766,
163612,0.9752569450244307,0.1295577790116891,0.22831951080858706,
163712,0.42627822401449084,0.12989344070684164,-0.07445990543961524,
163829,0.006576090454682707,0.36306780766807495,-0.18293138607442377,
163929,-0.21481223285123704,0.3003440057948232,0.027391280272603034,
164029,-0.19507800667043773,0.03703852180093527,0.3632026130288839,
164129,-0.1406639323777519,0.26895163665469735,-0.695440178951621,
164229,0.002134610009053722,0.4886272012259811,0.030598551881313323,
164329,0.009242517201940062,1.1488953098356722,-0.18618015873730182,
164429,-0.3144651413341984,0.4173533419439569,0.12702888158857822,
164529,0.12186531567978671,-0.14854078496638684,0.6079939506888389,
164629,0.6475130372591317,0.10015512238405644,-0.8121458194464445,
164745,0.09992528655040077,-0.025958982447162268,-0.12843465673327445,
164845,0.037163134561292825,0.21746208977289497,0.18972177686691283,
164945,-0.16513251187037675,0.4637677044533193,-0.8087561770081519,
165045,-0.6459731874059885,-0.015443214455991982,1.0845376962155102,
165145,-0.5849358042497188,-0.15441592407748103,-0.6092518417954444,
165245,-0.8294131075244396,-0.11966617080084979,0.007025953114032745,
165362,-0.49735659725703296,0.2027338917184621,-0.3279956905692816,
165479,-0.2820805828189477,0.29282208585739133,0.2749199339419603,
165579,-0.10019724449273198,0.09395780211389064,0.011084873116016388,
165679,-0.07111004702243953,-0.09310345030687749,-0.23115736458301542,
165779,0.11482601902699097,0.23638737419098615,-0.18403847053349018,
165880,-0.06413213430121541,-0.11049889480918645,0.6815215437144041,
165995,-0.0009501037990674376,-0.15068404407277702,-0.16503858650922773,ROTATION_90_LEFT
166095,0.14920343185989185,-0.3089678225595504,-0.000026888006925582884,
166195,0.40009043778013437,-0.2064144799273461,0.004809446108341216,
166295,0.8436277300335466,-0.38195498856548216,-0.29866204405725,
166395,0.7178406651996075,-0.2506209571288898,-0.11341127512454986,
166495,0.7238729311011731,0.07082381395958363,0.23823943179845808,
166595,0.3391887733001262,0.10284724754486232,0.2917342906206846,
166695,0.256907124726288,0.2748446767486632,-0.38917876580655575,
166795,-0.08107716815490275,0.15851320332847535,0.1810264292359352,
166895,0.012115092946588992,0.10853146719373762,0.08943009555637836,
166995,-0.22568286042837424,0.2762882996857166,0.14094634778201579,
167095,-0.7156717967279255,0.4246018883001059,-0.3598182312875986,
167195,-0.34911724292263385,0.681052611028403,-0.439203318169713,
167311,0.46498142762463535,0.4768276770345866,0.02069499750435352,
167411,0.20542528622690587,-0.07607576140472665,0.11767360874414444,
167511,0.16688633326776325,0.025540939698182046,-0.5428963323563337,
167611,0.10771527370633557,-0.04491046075243502,0.3128922294616699,
167711,-0.20540552208051086,-0.18557349808104334,0.08883914392590522,
167811,0.012033077218942343,0.3051334320284426,-0.13002630983889102,
167911,-0.42077827489133923,0.4782669160574674,0.25333938577473164,
168011,-0.29922521263165397,0.14362367723248898,-0.5223772759407759,
168111,-0.49173521371129897,0.10691431432068348,0.6081558632522821,
168211,-0.4828283056888729,0.1040136244431138,0.6155868900358676,
168312,-0.38940285688601434,0.11509710931964218,-0.2205494613289833,
168412,-0.2696110686778091,-0.16994104466326534,-0.12851999692916868,
168512,-0.1112550560718868,-0.275800808429718,-0.19110066400468348,
168612,-0.15803868115190417,-0.2085411166924983,-0.34964755040705203,
168715,0.02804685353792738,0.011994608372077345,0.7241811202675104,
168828,0.08726951998900621,-0.09735058635734022,-0.23235972611010072,ROTATION_90_LEFT
168929,0.16489930590270085,-0.24784385709837078,-0.12187807469666004,
169029,0.47259171996526417,-0.19797869654800743,-0.1054226144582033,
169145,0.3959445336144417,-0.26506321438141167,-0.5610679488629102,
169245,0.8327393293377011,-0.044289990766532714,-0.04667758002281189,
169345,0.6202789933748543,0.017895831772498785,-0.04514788623750209,
169445,0.3124715563641861,0.08129344125408679,0.14404957449436187,
169545,-0.017263013761676847,0.4003985904138535,-0.1655897906512022,
169645,-0.3823418324586004,0.28158735594190654,-0.2093681421011686,
169745,-0.5322099935712292,0.10725425033215433,0.06683364834487437,
169845,-0.4094438839936629,0.14603490309268236,0.4584492859095335,
169945,-0.20105335475299507,0.18967728013806043,-0.4065869967252016,
170045,-0.1598839802250266,0.436487592937611,-0.5403010551661253,
170145,-0.05981043517719954,0.25390852743219583,0.16137831043601036,
170245,0.47371696113552897,0.2683977290989831,-0.09918693493902683,
170345,0.5962578471224754,0.06352010335009545,-0.38844051465988155,
170445,0.17922420211955903,-0.3778492702797055,0.23798399573266504,
170545,-0.14162864922406151,-0.19619396855570376,0.12853636354207992,
170645,-0.31505561804063614,0.16718158988729118,0.15795827285945416,
170745,-0.39598106623254714,0.38122773373685775,-0.4342886581212282,
170845,-0.6613761429168283,0.1950583155892789,-0.1404448280006647,
170945,-0.3634753655556589,0.0008889116637408733,0.42713878636658187,
171045,0.0351707917002961,-0.22750534488148985,0.09668985742628573,
171145,0.030979331359826025,-0.057639301683194935,-0.33870062445700166,
171245,-0.22763474341481924,0.009585574468970298,-0.10017828406393528,
171345,-0.618141250693798,-0.040271512372791765,-0.026093641677498815,
171445,-0.1606650476001203,-0.04248396425787359,-0.40816695939302444,
171545,-0.03260558085478842,0.1665288250669837,0.034012159717082976,
171645,0.1576960051940754,-0.04369191527552902,-0.02194119817316532,
171745,0.4676706301759928,-0.12460932629145681,0.23319909954369067,ROTATION_90_LEFT
171845,0.6241974819928408,-0.07346015381254255,-0.39379181255996226,
171945,0.972270622690022,0.03389476214880124,-0.41757483920753,
172045,0.9300983912624419,0.02425108255073428,0.0947264483988285,
172145,0.42390539393592624,-0.009137136581726372,-0.03439619059860706,
172245,-0.1708407699819654,0.5447774333951995,-0.4433686211556196,
172345,-0.09805679839793592,0.5922765224013478,0.261654794177413,
172445,-0.15045721304696053,0.1817508710529655,0.27634441378712654,
172545,-0.28618546085450797,-0.0003423836968839168,-0.1091921961247921,
172645,-0.03498553479388356,0.17598233412150294,-0.20211305640637872,
172745,-0.11877276562508195,0.5880374600594863,-0.5906763206630945,
172845,-0.34617377334926275,0.7149288694061339,-0.11910451833009719,
172945,-0.26848716094810515,0.1561440265117213,0.6928063233166932,
173045,-0.04526747576287016,0.28647383107552304,-1.458063550338149,
173145,-0.20069529856294394,0.05545919943144545,-0.2513485042184591,
173245,-0.10529138016081414,-0.08858951654639094,0.25854104607105255,
173345,0.044027750500617545,-0.24284586614798753,0.549046671679616,
173445,0.23295544524723663,0.2713765987792984,0.011487608698010444,
173562,0.06137650175041053,-0.07727646069768816,-0.04693067800104618,
173662,-0.5512407476577907,0.11988543957471846,-0.21367256129682063,
173762,-0.973250427507609,-0.0641793846761575,0.7221323710441588,
173862,-0.6595326339419931,0.15662285953722893,0.18062895435094833,
173962,-0.16319485833868383,-0.06945109170111827,-0.0094242464274168,
174062,-0.27135003956593573,-0.10866203477084636,-0.24901684640049934,
174162,-0.2373280525745824,0.06306517178998329,-0.1949035634189844,
174262,-0.13158776873564346,0.016119341885577888,0.3321533947706222,
174362,0.13409155911696144,0.11315390282999724,0.12002689387202262,
174462,0.05124344946651253,-0.37631636162400245,-0.754924633577466,
174578,0.3724538409769535,-0.036985387391189575,-0.14963117401897907,
174695,0.4459631311608478,-0.10558745876424945,0.28134324498772617,ROTATION_90_LEFT
174812,0.5748916358256713,0.015414897110383026,-0.015291092634201049,
174912,0.5548536043927074,-0.17731767437849194,0.029240707531571385,
175012,0.5902382215067744,0.023304965373617596,-0.22867665368318557,
175112,0.019267065326776356,0.19134450096422806,0.06624152767062187,
175212,0.0951152285207063,0.2087020611415617,-0.1562871247768402,
175312,-0.18033364293249324,-0.013033342585957142,-0.23244214369654653,
175412,-0.040896384539175774,0.16324189408449455,0.03890928410887718,
175512,-0.26567086141835894,0.3874103678945452,-0.2766547949105501,
175628,0.08014118421273306,0.6477797253713011,-0.45936230910122394,
175728,0.46324905087407675,0.36098121065236627,-0.07086918747127055,
175828,1.0441129660423845,0.24124814862776547,0.15647300273776055,
175928,0.3261383722648024,0.29832594397068024,0.1767038898617029,
176028,0.14061773688215762,0.27579649758078156,0.31316110953092574,
176128,0.25192582918237894,0.20321013092808424,0.2238987717568874,
176228,0.0371015405671671,0.28645817684866487,-0.5383826543241739,
176328,-0.4595234544796869,0.2864273067863658,0.18783318664133547,
176428,-0.8417391398079693,0.3546857272373512,-0.6234370190143584,
176528,-1.1282634406954049,-0.03529934998340904,-0.21759587222039697,
176628,-0.8981124766759574,0.02900909073278308,-0.013510638958215714,
176728,-0.3526232782822102,0.024542685908451677,0.571518031206727,
176828,-0.2520385323092341,0.08191975645888597,-0.4667693704873323,
176928,-0.0917123521415051,0.12262940452061592,0.18444997394382953,
177028,0.06287366780587472,-0.1490284954180941,0.4591185634732246,
177128,0.11512396079394965,-0.07844678311869502,-0.38494799636900423,
177228,0.05839096030071377,-0.17466964408773927,-0.22519231869876383,
177328,0.02315569766261615,-0.04754555849637836,-0.16357143656611442,
177428,0.4881775212297216,-0.11192019631657749,0.3405640802413225,ROTATION_90_LEFT
177528,0.6152310623355209,-0.019114980037603525,0.1525134514570236,
177628,0.5168716642618179,-0.07621814728379249,-0.2876999205380678,
177745,0.11029129820680245,-0.14788772788513452,0.21308453227579593,
